time,seconds_elapsed,z,y,x
1771525731158453200,0.112453369140625,0,0,0
1771525731188454100,0.1424541015625,0.11269092559814453,-0.025056838989257812,-0.028770536184310913
1771525731228460500,0.18246044921875,-0.2715138792991638,-0.01276397705078125,-0.30560502409935
1771525731258470000,0.212469970703125,-0.38015443086624146,-0.014945030212402344,-0.2630677819252014
1771525731278478000,0.23247802734375,-0.2811436653137207,-0.0690908432006836,-0.06522786617279053
1771525731298487000,0.252487060546875,-0.25850892066955566,-0.08139705657958984,-0.035187721252441406
1771525731348504800,0.3025048828125,-0.04288583993911743,-0.04420948028564453,-0.0010244101285934448
1771525731358507500,0.312507568359375,-0.00818169116973877,-0.07406902313232422,-0.025231435894966125
1771525731388515600,0.342515625,0.04494661092758179,-0.2071533203125,-0.08894793689250946
1771525731398518300,0.352518310546875,0.04486083984375,-0.1990346908569336,-0.1317014843225479
1771525731408521000,0.36252099609375,-0.0922551155090332,-0.20084571838378906,-0.05389539897441864
1771525731418523600,0.372523681640625,-0.17821139097213745,-0.1567850112915039,0.0070755332708358765
1771525731428526300,0.3825263671875,-0.2162771224975586,-0.09593486785888672,-0.017032891511917114
1771525731438529000,0.392529052734375,-0.16687649488449097,-0.0695352554321289,0.006313830614089966
1771525731448531700,0.40253173828125,-0.10623222589492798,-0.030150413513183594,-0.0027454346418380737
1771525731458534400,0.412534423828125,-0.07593673467636108,-0.019837379455566406,-0.10373830795288086
1771525731468537300,0.422537353515625,-0.02442842721939087,0.03661632537841797,-0.1321483850479126
1771525731478540000,0.4325400390625,0.03469794988632202,0.058915138244628906,-0.02122439444065094
1771525731488542700,0.442542724609375,0.04218173027038574,0.05725383758544922,0.10522797703742981
1771525731498545400,0.45254541015625,0.00403517484664917,0.08811569213867188,0.12717820703983307
1771525731508548000,0.462548095703125,0.04692733287811279,0.11808395385742188,0.09393101930618286
1771525731518550800,0.47255078125,0.024423062801361084,0.11462020874023438,0.06194695830345154
1771525731528553500,0.482553466796875,-0.02002030611038208,0.09259223937988281,0.11552171409130096
1771525731538556200,0.49255615234375,-0.04938429594039917,0.09916496276855469,0.08981451392173767
1771525731548558800,0.502558837890625,-0.11140012741088867,0.15238475799560547,0.09322933852672577
1771525731558561300,0.512561279296875,-0.051061272621154785,0.0970144271850586,0.12922848761081696
1771525731568564000,0.52256396484375,-0.0014537572860717773,0.09440898895263672,0.12350377440452576
1771525731578566700,0.532566650390625,0.024308383464813232,0.11054706573486328,-0.021580040454864502
1771525731588569300,0.5425693359375,0.03135102987289429,0.08889389038085938,-0.2616737484931946
1771525731598572000,0.552572021484375,0.15501290559768677,0.1099538803100586,-0.45964503288269043
1771525731608574700,0.56257470703125,0.22544896602630615,0.13993263244628906,-0.4212184548377991
1771525731618577400,0.572577392578125,0.15517979860305786,-0.05101490020751953,-0.2592058777809143
1771525731628580000,0.582580078125,0.02203691005706787,0.015067100524902344,-0.20405177772045135
1771525731638582500,0.59258251953125,-0.05464053153991699,-0.10799980163574219,-0.006132632493972778
1771525731648585200,0.602585205078125,-0.2485743761062622,-0.06426334381103516,-0.04680529236793518
1771525731658588000,0.612587890625,-0.3378753662109375,-0.06341266632080078,-0.09301435947418213
1771525731668590600,0.622590576171875,-0.3812752962112427,-0.09990406036376953,-0.013152748346328735
1771525731678593300,0.63259326171875,-0.4314655065536499,-0.08849811553955078,0.06445850431919098
1771525731688596000,0.642595947265625,-0.3846529722213745,-0.08651065826416016,0.103178471326828
1771525731698598700,0.6525986328125,-0.19502609968185425,-0.06092071533203125,-0.0034288763999938965
1771525731708601300,0.662601318359375,-0.03235805034637451,-0.02170276641845703,-0.032615989446640015
1771525731718603800,0.672603759765625,0.053819477558135986,-0.07741355895996094,0.04209311306476593
1771525731728606500,0.6826064453125,0.09722018241882324,-0.08523082733154297,-0.02514442801475525
1771525731738609200,0.692609130859375,0.031954944133758545,-0.017652511596679688,-0.025338858366012573
1771525731748611800,0.70261181640625,-0.007876694202423096,-0.10665130615234375,0.18551217019557953
1771525731758614500,0.712614501953125,-0.11814665794372559,-0.17531299591064453,0.3711458444595337
1771525731768617200,0.7226171875,-0.18745404481887817,-0.10172748565673828,0.2725061774253845
1771525731778620000,0.732619873046875,-0.11033076047897339,-0.08110809326171875,-0.14875416457653046
1771525731788622600,0.74262255859375,-0.08055847883224487,0.047835350036621094,-0.4142259359359741
1771525731798625300,0.752625244140625,0.01689547300338745,0.13725948333740234,-0.43989497423171997
1771525731808628000,0.7626279296875,0.14891302585601807,-0.0006389617919921875,-0.22747284173965454
1771525731818630700,0.772630615234375,0.09500664472579956,-0.004370689392089844,0.00456412136554718
1771525731828633300,0.78263330078125,0.13908910751342773,-0.06482410430908203,0.20060980319976807
1771525731838636000,0.792635986328125,0.2687525749206543,-0.006743431091308594,0.09503640234470367
1771525731848638700,0.802638671875,0.3185877799987793,0.13488292694091797,-0.1303780972957611
1771525731858641700,0.8126416015625,0.2520400881767273,0.17035293579101562,0.014884665608406067
1771525731868644400,0.822644287109375,0.14636123180389404,0.10611152648925781,0.08886127173900604
1771525731878647000,0.83264697265625,0.09944921731948853,0.16998004913330078,-0.05235113203525543
1771525731888649700,0.842649658203125,0.09633404016494751,0.1762104034423828,-0.12950271368026733
1771525731898652400,0.85265234375,0.027962803840637207,0.13990020751953125,-0.012284606695175171
1771525731908655000,0.862655029296875,0.04016435146331787,0.02420520782470703,-0.0049256831407547
1771525731918657800,0.87265771484375,-0.04711031913757324,-0.00005340576171875,0.03023625910282135
1771525731928660500,0.882660400390625,-0.1045682430267334,-0.03803062438964844,0.13467207551002502
1771525731938663200,0.8926630859375,-0.09167510271072388,-0.051711082458496094,0.13378939032554626
1771525731948665900,0.902665771484375,-0.02805536985397339,-0.04625129699707031,0.1426311880350113
1771525731958668500,0.91266845703125,-0.04910963773727417,-0.08339309692382812,0.2799589931964874
1771525731968671200,0.922671142578125,-0.0367358922958374,-0.08229732513427734,0.2903619110584259
1771525731978674200,0.932674072265625,0.08829087018966675,-0.062401771545410156,0.11898668110370636
1771525731988676900,0.9426767578125,0.15045219659805298,-0.019338607788085938,0.012225836515426636
1771525731998679600,0.952679443359375,0.1695595383644104,-0.02411365509033203,-0.1863812804222107
1771525732008682200,0.96268212890625,0.2356134057044983,-0.005263328552246094,-0.4388701319694519
1771525732018685000,0.972684814453125,0.2020840048789978,0.027408599853515625,-0.45038512349128723
1771525732038690300,0.992690185546875,-0.022946655750274658,-0.015030860900878906,-0.29086193442344666
1771525732048693000,1.00269287109375,-0.06326329708099365,-0.05260944366455078,-0.09307242184877396
1771525732058695700,1.01269580078125,-0.15923237800598145,-0.1131134033203125,0.16649726033210754
1771525732068698400,1.022698486328125,-0.18403023481369019,-0.1207132339477539,0.11571838706731796
1771525732078701000,1.032701171875,-0.059307634830474854,-0.05740928649902344,0.0046519264578819275
1771525732088703700,1.042703857421875,0.0015053749084472656,0.009611129760742188,0.017375566065311432
1771525732098706400,1.05270654296875,0.033057332038879395,0.028429031372070312,0.025139443576335907
1771525732108709400,1.06270947265625,0.05006766319274902,0.018670082092285156,0.000053375959396362305
1771525732118712000,1.072712158203125,0.029542863368988037,0.027866363525390625,0.018011942505836487
1771525732128714800,1.08271484375,0.0054718852043151855,-0.0055522918701171875,0.10693597048521042
1771525732138717400,1.092717529296875,-0.013393402099609375,-0.04313850402832031,0.10559962689876556
1771525732148720000,1.10272021484375,0.0009143352508544922,-0.042423248291015625,0.04337224364280701
1771525732158722800,1.112722900390625,-0.017354726791381836,-0.05118560791015625,0.03771156817674637
1771525732178728200,1.132728271484375,-0.01213538646697998,0.007019996643066406,-0.00012852251529693604
1771525732188731000,1.14273095703125,0.00036013126373291016,0.03536510467529297,-0.041032515466213226
1771525732198733600,1.152733642578125,0.0731431245803833,0.0068111419677734375,0.04995808005332947
1771525732208736300,1.162736328125,0.10806423425674438,-0.007241249084472656,0.07400881499052048
1771525732218739000,1.172739013671875,0.0779186487197876,0.016462326049804688,-0.00046493858098983765
1771525732228742000,1.182741943359375,-0.0220334529876709,0.08211708068847656,-0.0735718160867691
1771525732238744600,1.19274462890625,-0.11202389001846313,0.033786773681640625,0.028287455439567566
1771525732248747300,1.202747314453125,-0.10818827152252197,0.05235004425048828,0.08217518031597137
1771525732258750000,1.21275,0.04030430316925049,0.0754251480102539,0.06515716016292572
1771525732268752600,1.222752685546875,0.11106890439987183,0.06984901428222656,0.1526617705821991
1771525732278755300,1.23275537109375,0.13047385215759277,0.06420040130615234,0.1782274842262268
1771525732288758000,1.242758056640625,0.10427659749984741,0.011370658874511719,0.1620093286037445
1771525732298760700,1.2527607421875,0.05595552921295166,0.029935836791992188,0.10492090880870819
1771525732308763400,1.262763427734375,0.03749525547027588,0.05752372741699219,0.0540345162153244
1771525732318766000,1.27276611328125,0.023946762084960938,0.02815532684326172,-0.019218355417251587
1771525732328768800,1.282768798828125,-0.012714147567749023,0.04633522033691406,-0.0011504143476486206
1771525732338771500,1.292771484375,-0.019800961017608643,0.012338638305664062,-0.04379631578922272
1771525732348774100,1.302774169921875,-0.08346325159072876,0.054261207580566406,-0.15583480894565582
1771525732358777000,1.312777099609375,-0.09536665678024292,0.1003103256225586,-0.28069037199020386
1771525732368779800,1.32277978515625,-0.08083850145339966,0.0845956802368164,-0.26826226711273193
1771525732378782500,1.332782470703125,-0.01597493886947632,0.04572772979736328,-0.2851816713809967
1771525732388785200,1.34278515625,-0.03232449293136597,0.026361465454101562,-0.25093454122543335
1771525732398787800,1.352787841796875,-0.11421585083007812,-0.0115203857421875,-0.09540976583957672
1771525732408790500,1.36279052734375,-0.2102089524269104,-0.02980518341064453,-0.0414309985935688
1771525732418793200,1.372793212890625,-0.08105731010437012,-0.042830467224121094,-0.1115061342716217
1771525732428796000,1.3827958984375,0.012779712677001953,-0.013232231140136719,-0.06806688755750656
1771525732438798600,1.392798583984375,0.1428326964378357,-0.02180004119873047,-0.020943395793437958
1771525732448801300,1.40280126953125,0.3009093999862671,0.011960029602050781,0.030581004917621613
1771525732458804000,1.412803955078125,0.2621743679046631,-0.011709213256835938,0.07272115349769592
1771525732468806700,1.422806640625,0.09397900104522705,0.00720977783203125,0.09179844707250595
1771525732478809300,1.432809326171875,-0.04829031229019165,0.021137237548828125,0.07872943580150604
1771525732488812300,1.442812255859375,-0.1141858696937561,0.03025531768798828,0.052245981991291046
1771525732498815000,1.45281494140625,-0.08184832334518433,0.03468894958496094,0.07807035744190216
1771525732508817700,1.462817626953125,-0.09765487909317017,0.010847091674804688,0.10844086855649948
1771525732518820400,1.4728203125,-0.01965188980102539,-0.059619903564453125,0.053664714097976685
1771525732528823000,1.482822998046875,0.18140673637390137,-0.025518417358398438,0.047189392149448395
1771525732538825700,1.49282568359375,0.17429906129837036,-0.020470619201660156,-0.04921501502394676
1771525732548828400,1.502828369140625,0.17826950550079346,0.012598991394042969,-0.13611607253551483
1771525732558831000,1.5128310546875,0.14165431261062622,-0.011564254760742188,-0.10077120363712311
1771525732568833800,1.522833740234375,0.054787397384643555,-0.016577720642089844,-0.08106913417577744
1771525732578836500,1.53283642578125,-0.021619141101837158,-0.016753196716308594,-0.10469222068786621
1771525732588839200,1.542839111328125,-0.041987061500549316,-0.007328987121582031,-0.11405490338802338
1771525732598841900,1.552841796875,0.002270817756652832,-0.01673126220703125,-0.08587133884429932
1771525732608844800,1.5628447265625,0.10220545530319214,0.00699615478515625,-0.08212261646986008
1771525732618847500,1.572847412109375,0.07837218046188354,0.030300140380859375,-0.0506792813539505
1771525732628850200,1.58285009765625,0.03999507427215576,0.034465789794921875,0.012901321053504944
1771525732638852900,1.592852783203125,0.0769730806350708,-0.0037517547607421875,0.06610794365406036
1771525732648855600,1.60285546875,0.15140295028686523,0.005710601806640625,0.06702440977096558
1771525732658858200,1.612858154296875,0.15559351444244385,-0.027532577514648438,0.08297783136367798
1771525732668861000,1.62286083984375,0.09050840139389038,-0.027416229248046875,0.1566096991300583
1771525732678863600,1.632863525390625,-0.03870731592178345,-0.04622173309326172,0.1931663453578949
1771525732698869000,1.652868896484375,-0.1666884422302246,-0.064117431640625,0.05307836830615997
1771525732708871700,1.66287158203125,-0.09274792671203613,-0.07255363464355469,0.009398296475410461
1771525732718874400,1.672874267578125,-0.08103698492050171,-0.07615852355957031,-0.10418256372213364
1771525732728877000,1.682876953125,-0.05088561773300171,-0.0749664306640625,-0.21677473187446594
1771525732738880000,1.6928798828125,0.002414107322692871,-0.07379531860351562,-0.2439376413822174
1771525732748882700,1.702882568359375,-0.0435260534286499,-0.06797599792480469,-0.2487967312335968
1771525732758885400,1.712885498046875,-0.10865354537963867,-0.029173851013183594,-0.194033682346344
1771525732768888000,1.72288818359375,-0.08937841653823853,-0.03325176239013672,-0.10336624085903168
1771525732778890800,1.732890869140625,-0.056817710399627686,-0.008958816528320312,0.01424531638622284
1771525732788893400,1.7428935546875,-0.05766034126281738,0.014914512634277344,0.060159992426633835
1771525732798896000,1.752896240234375,-0.03505265712738037,0.0431060791015625,0.05400639399886131
1771525732808898800,1.76289892578125,0.053810715675354004,0.06604671478271484,0.0908648669719696
1771525732818901500,1.772901611328125,0.08131790161132812,0.06493091583251953,0.047052573412656784
1771525732828904200,1.782904296875,0.07163029909133911,0.1155405044555664,-0.04856245592236519
1771525732838907000,1.792906982421875,0.043683648109436035,0.12760162353515625,-0.007000327110290527
1771525732848909600,1.80290966796875,-0.01696467399597168,0.10652351379394531,0.07618407905101776
1771525732868915200,1.822915283203125,-0.013490796089172363,0.09822368621826172,0.052789077162742615
1771525732878918000,1.83291796875,0.020974040031433105,0.11530399322509766,0.04141863435506821
1771525732888920600,1.842920654296875,0.040844082832336426,0.08500480651855469,0.08169321715831757
1771525732898923300,1.85292333984375,0.08402782678604126,0.05520057678222656,0.10719072073698044
1771525732908926000,1.862926025390625,0.06620901823043823,0.039931297302246094,0.089752696454525
1771525732918928600,1.8729287109375,-0.011899709701538086,0.02014923095703125,0.07713068276643753
1771525732928931300,1.882931396484375,-0.046731770038604736,0.019571304321289062,0.055408135056495667
1771525732938934000,1.89293408203125,-0.04371923208236694,-0.013919830322265625,0.07666485011577606
1771525732948936700,1.902936767578125,-0.0972592830657959,-0.046858787536621094,0.12193488329648972
1771525732958939400,1.912939453125,-0.15953880548477173,-0.07452964782714844,0.08292830735445023
1771525732968942000,1.922942138671875,-0.1644952893257141,-0.09701919555664062,0.041021622717380524
1771525732978944800,1.93294482421875,-0.10868799686431885,-0.10967159271240234,0.005203425884246826
1771525732988947700,1.94294775390625,-0.01144498586654663,-0.12682056427001953,-0.08158309012651443
1771525732998950400,1.952950439453125,-0.03209102153778076,-0.09672927856445312,-0.1392551064491272
1771525733008953000,1.962953125,-0.17438071966171265,-0.1001291275024414,-0.13607482612133026
1771525733018955800,1.972955810546875,-0.31582552194595337,-0.12215709686279297,-0.06765016168355942
1771525733028958500,1.98295849609375,-0.23587024211883545,-0.15302181243896484,-0.01932002231478691
1771525733038961200,1.992961181640625,-0.11958718299865723,-0.13157939910888672,0.051956795156002045
1771525733048963800,2.0029638671875,-0.14097195863723755,-0.1152791976928711,0.028015054762363434
1771525733058966500,2.012966552734375,-0.1487065553665161,-0.05679893493652344,-0.023552250117063522
1771525733068969200,2.02296923828125,-0.01599252223968506,-0.03687572479248047,-0.008168540894985199
1771525733078972000,2.032971923828125,0.10621011257171631,-0.02680683135986328,0.026057593524456024
1771525733088974600,2.042974609375,0.016447007656097412,0.006455421447753906,0.007945507764816284
1771525733098977300,2.052977294921875,-0.13773232698440552,0.04857826232910156,0.013984359800815582
1771525733108980000,2.06297998046875,-0.12689977884292603,0.06196308135986328,-0.04093509539961815
1771525733118983000,2.07298291015625,0.028795897960662842,0.07521247863769531,-0.08575575798749924
1771525733128985600,2.082985595703125,0.06511318683624268,0.06932640075683594,-0.05531562492251396
1771525733138988300,2.09298828125,-0.02547997236251831,0.06817340850830078,0.0022786036133766174
1771525733148991000,2.102990966796875,-0.10043054819107056,0.038788795471191406,0.016431111842393875
1771525733158993700,2.11299365234375,-0.09491568803787231,0.047636985778808594,0.035376422107219696
1771525733168996400,2.122996337890625,-0.04241633415222168,0.023375511169433594,0.049851130694150925
1771525733178999000,2.1329990234375,-0.03265845775604248,0.027723312377929688,0.040280673652887344
1771525733189001700,2.143001708984375,-0.06523627042770386,0.027273178100585938,0.035391733050346375
1771525733199004400,2.15300439453125,-0.13473236560821533,0.03151988983154297,0.04949309676885605
1771525733209007000,2.163007080078125,-0.15158343315124512,0.02159881591796875,0.04912153631448746
1771525733219009800,2.173009765625,-0.08872699737548828,-0.00693511962890625,0.03937684744596481
1771525733229012500,2.183012451171875,0.015350639820098877,-0.0067310333251953125,-0.003286406397819519
1771525733239015400,2.193015380859375,0.033964574337005615,-0.0019140243530273438,-0.017257701605558395
1771525733249018000,2.20301806640625,-0.03156173229217529,-0.006678581237792969,-0.021775133907794952
1771525733259020800,2.213020751953125,-0.07317006587982178,0.02166461944580078,-0.026460755616426468
1771525733269023500,2.2230234375,-0.08184325695037842,0.021348953247070312,0.02551877498626709
1771525733279026200,2.233026123046875,-0.05332517623901367,-0.011868476867675781,0.04896971955895424
1771525733289028900,2.24302880859375,0.03540831804275513,0.012013435363769531,-0.021318819373846054
1771525733299031600,2.253031494140625,0.07128298282623291,0.03075122833251953,-0.13296270370483398
1771525733309034200,2.2630341796875,0.06030231714248657,0.030271530151367188,-0.15879550576210022
1771525733319037000,2.273036865234375,0.059439122676849365,0.020338058471679688,-0.07625570893287659
1771525733329039600,2.28303955078125,0.021854877471923828,0.02931976318359375,-0.061247289180755615
1771525733339042300,2.293042236328125,-0.05307817459106445,0.024051666259765625,-0.003635246306657791
1771525733349045000,2.303044921875,-0.05286836624145508,0.04254150390625,-0.016620445996522903
1771525733359047700,2.313047607421875,0.1118202805519104,0.04191398620605469,-0.019175268709659576
1771525733369050600,2.323050537109375,0.16312283277511597,0.022246360778808594,0.03033209964632988
1771525733379053300,2.33305322265625,0.060547709465026855,0.0026865005493164062,0.08413584530353546
1771525733389056000,2.343055908203125,-0.06294107437133789,-0.05430316925048828,0.10504639148712158
1771525733399058700,2.35305859375,-0.08539843559265137,-0.05385017395019531,0.08899417519569397
1771525733409061400,2.363061279296875,-0.2017497420310974,-0.025137901306152344,0.02580173686146736
1771525733419064000,2.37306396484375,-0.27102071046829224,-0.0014295578002929688,-0.046981409192085266
1771525733429066800,2.383066650390625,-0.22481077909469604,-0.0060596466064453125,-0.1290249228477478
1771525733439069400,2.3930693359375,0.021045207977294922,-0.024552345275878906,-0.13056975603103638
1771525733449072000,2.403072021484375,0.14172208309173584,-0.005185127258300781,-0.09038162976503372
1771525733459074800,2.41307470703125,0.05046349763870239,-0.0051479339599609375,-0.07052531093358994
1771525733469077500,2.423077392578125,-0.005900681018829346,-0.019273757934570312,-0.0650029107928276
1771525733479080200,2.433080078125,0.008681833744049072,-0.033110618591308594,-0.06371287256479263
1771525733489083100,2.443083251953125,0.10879707336425781,-0.0656442642211914,0.027519093826413155
1771525733499085800,2.4530859375,0.07745349407196045,-0.07898426055908203,0.04236505925655365
1771525733509088500,2.463088623046875,-0.047027766704559326,-0.07802009582519531,-0.042134568095207214
1771525733519091200,2.47309130859375,-0.12347954511642456,-0.05342578887939453,-0.10688905417919159
1771525733529094000,2.483093994140625,-0.10654008388519287,-0.0667276382446289,-0.15709330141544342
1771525733539096600,2.4930966796875,-0.0772961974143982,-0.05141925811767578,-0.17435665428638458
1771525733549099300,2.503099365234375,-0.11046779155731201,-0.03159332275390625,-0.1261068731546402
1771525733559098600,2.5130986328125,-0.19099068641662598,-0.0355682373046875,-0.08358646929264069
1771525733579097600,2.53309765625,-0.04854261875152588,-0.014627456665039062,-0.08886197209358215
1771525733589098000,2.543097900390625,0.027531862258911133,-0.02337360382080078,-0.01913875713944435
1771525733599098600,2.5530986328125,-0.004521667957305908,-0.0273895263671875,0.04438376426696777
1771525733609100300,2.563100341796875,-0.07749712467193604,-0.022004127502441406,0.07009029388427734
1771525733619102200,2.573102294921875,-0.11681419610977173,0.016297340393066406,0.021139539778232574
1771525733629105200,2.583105224609375,-0.11883658170700073,0.049343109130859375,-0.021904580295085907
1771525733639108600,2.593108642578125,-0.08878922462463379,0.03483772277832031,-0.0033643171191215515
1771525733649112600,2.603112548828125,-0.1018257737159729,0.01117706298828125,-0.03253592178225517
1771525733659117000,2.613116943359375,-0.07247358560562134,0.0020599365234375,-0.06193061172962189
1771525733669122000,2.6231220703125,-0.05282074213027954,-0.02104473114013672,-0.025801928713917732
1771525733679127300,2.633127197265625,-0.10443013906478882,-0.043731689453125,-0.019423669204115868
1771525733689132800,2.6431328125,-0.11802226305007935,-0.05186271667480469,-0.022821206599473953
1771525733699138300,2.65313818359375,-0.07068973779678345,-0.06451606750488281,-0.011801894754171371
1771525733709143300,2.663143310546875,-0.02875053882598877,-0.05813026428222656,-0.0007600560784339905
1771525733719146000,2.67314599609375,-0.03407806158065796,-0.07543754577636719,-0.008895758539438248
1771525733729148700,2.683148681640625,-0.029591798782348633,-0.07364559173583984,-0.017071709036827087
1771525733739151400,2.6931513671875,-0.03910374641418457,-0.08131599426269531,-0.048575982451438904
1771525733749154000,2.703154052734375,-0.0809030532836914,-0.07477664947509766,-0.1126268208026886
1771525733759156700,2.71315673828125,-0.11678057909011841,-0.05426597595214844,-0.12437669932842255
1771525733769159400,2.723159423828125,-0.269161581993103,-0.06240367889404297,-0.13148990273475647
1771525733779162000,2.733162109375,-0.4478667378425598,-0.07034587860107422,-0.10085449367761612
1771525733789164800,2.743164794921875,-0.4939045310020447,-0.07794857025146484,-0.07073864340782166
1771525733799167500,2.75316748046875,-0.4092825651168823,-0.07111072540283203,-0.09319643676280975
1771525733809170200,2.763170166015625,-0.2846120595932007,-0.040747642517089844,-0.12534043192863464
1771525733819172900,2.7731728515625,-0.13816958665847778,0.012635231018066406,-0.14350968599319458
1771525733829175300,2.78317529296875,-0.08690637350082397,-0.005629539489746094,-0.11447473615407944
1771525733839178000,2.793177978515625,-0.05297267436981201,0.013854026794433594,-0.15166842937469482
1771525733849180700,2.8031806640625,-0.0877806544303894,-0.0001888275146484375,-0.16421917080879211
1771525733859183400,2.813183349609375,-0.2713474631309509,0.0047016143798828125,-0.13351616263389587
1771525733869186000,2.82318603515625,-0.39576244354248047,-0.013997077941894531,-0.09318061172962189
1771525733879188700,2.833188720703125,-0.44399839639663696,-0.0322723388671875,-0.08552563190460205
1771525733889191400,2.84319140625,-0.5063725709915161,-0.04075336456298828,-0.10105873644351959
1771525733899194000,2.853194091796875,-0.5310543775558472,-0.030157089233398438,-0.11671891063451767
1771525733909196500,2.863196533203125,-0.5238990783691406,-0.029006004333496094,-0.15126895904541016
1771525733929202000,2.883201904296875,-0.5411075353622437,-0.021646499633789062,-0.11750289797782898
1771525733939204600,2.89320458984375,-0.5970568060874939,-0.01571941375732422,-0.12026200443506241
1771525733949207300,2.903207275390625,-0.610721230506897,0.0278778076171875,-0.16072627902030945
1771525733959210000,2.9132099609375,-0.6631401777267456,0.04733562469482422,-0.16780489683151245
1771525733969212700,2.923212646484375,-0.6169268488883972,0.024200439453125,-0.11368514597415924
1771525733979215400,2.93321533203125,-0.5382131338119507,0.04379749298095703,-0.06468361616134644
1771525733989217800,2.9432177734375,-0.5681726932525635,0.0771017074584961,-0.030128538608551025
1771525733999220500,2.953220458984375,-0.6260725855827332,0.07689857482910156,0.04251684248447418
1771525734009223200,2.96322314453125,-0.637135922908783,0.08150482177734375,0.10156890004873276
1771525734019225900,2.973225830078125,-0.5508641004562378,0.11443614959716797,0.12834617495536804
1771525734029228500,2.983228515625,-0.45241618156433105,0.1280221939086914,0.1466902196407318
1771525734039231200,2.993231201171875,-0.3314676284790039,0.09893608093261719,0.13801658153533936
1771525734049234000,3.00323388671875,-0.17366105318069458,0.12671661376953125,0.07878237217664719
1771525734059236600,3.013236572265625,-0.1432781219482422,0.12555885314941406,0.020952686667442322
1771525734069239300,3.0232392578125,-0.21955972909927368,0.1195058822631836,0.006433233618736267
1771525734079242000,3.033241943359375,-0.32763731479644775,0.08531761169433594,0.053501129150390625
1771525734089244700,3.04324462890625,-0.35561662912368774,0.05658245086669922,0.07211751490831375
1771525734099247600,3.05324755859375,-0.2625575065612793,0.019098281860351562,0.053452469408512115
1771525734109250300,3.063250244140625,-0.13820791244506836,-0.05070781707763672,0.09731817245483398
1771525734119253000,3.0732529296875,-0.03825622797012329,-0.058258056640625,0.09445856511592865
1771525734129255700,3.083255615234375,-0.0421217679977417,-0.03756904602050781,0.06412515044212341
1771525734139258400,3.09325830078125,-0.09167224168777466,-0.007940292358398438,0.08690256625413895
1771525734149261000,3.103260986328125,-0.18572932481765747,0.05868721008300781,0.06770560890436172
1771525734159263700,3.113263671875,-0.3332633376121521,0.14760303497314453,0.044415850192308426
1771525734169266400,3.123266357421875,-0.5062659978866577,0.2114715576171875,0.110569529235363
1771525734179269000,3.13326904296875,-0.5690013766288757,0.18962669372558594,0.18449386954307556
1771525734189271800,3.143271728515625,-0.47663789987564087,0.20125293731689453,0.28919923305511475
1771525734199274500,3.1532744140625,-0.3339213728904724,0.0902566909790039,0.3770838677883148
1771525734209277200,3.163277099609375,-0.26176321506500244,0.09386348724365234,0.39675742387771606
1771525734219280000,3.17327978515625,-0.29961878061294556,0.04047393798828125,0.46125367283821106
1771525734229282800,3.18328271484375,-0.5354177355766296,-0.02655315399169922,0.4623510241508484
1771525734239285500,3.193285400390625,-0.8983079195022583,-0.036037445068359375,0.5239025950431824
1771525734249288200,3.2032880859375,-1.2801276445388794,-0.11113262176513672,0.5564521551132202
1771525734259291000,3.213290771484375,-1.4999068975448608,-0.12333393096923828,0.5147024393081665
1771525734269293600,3.22329345703125,-1.557584524154663,-0.10648441314697266,0.4095112085342407
1771525734279296300,3.233296142578125,-1.4840047359466553,-0.11759281158447266,0.2594638466835022
1771525734289299000,3.243298828125,-1.299466848373413,-0.15626049041748047,0.04576358199119568
1771525734299301600,3.253301513671875,-1.0606740713119507,-0.18920230865478516,-0.08134151995182037
1771525734309304300,3.26330419921875,-0.8556286692619324,-0.2120065689086914,-0.07760225236415863
1771525734319307000,3.27330712890625,-0.8101815581321716,-0.20606422424316406,-0.015900561586022377
1771525734329309700,3.283309814453125,-0.6826550364494324,-0.2423696517944336,-0.014299571514129639
1771525734339312400,3.2933125,-0.4345971345901489,-0.20269775390625,-0.03398760035634041
1771525734349315000,3.303315185546875,-0.2719331979751587,-0.22518539428710938,0.03907189890742302
1771525734359318000,3.313318115234375,-0.22457700967788696,-0.2336416244506836,0.1337614208459854
1771525734369320700,3.32332080078125,-0.35592353343963623,-0.23310089111328125,0.2509952187538147
1771525734379323400,3.333323486328125,-0.5987144708633423,-0.303619384765625,0.3727588355541229
1771525734389326000,3.343326171875,-0.812291145324707,-0.3119354248046875,0.4574289321899414
1771525734399328800,3.353328857421875,-0.9575029015541077,-0.31060123443603516,0.4673173427581787
1771525734409331500,3.36333154296875,-0.8998589515686035,-0.2902660369873047,0.41262876987457275
1771525734419334100,3.373334228515625,-0.8448987603187561,-0.27951812744140625,0.3874393403530121
1771525734429336800,3.3833369140625,-0.6885746717453003,-0.2829408645629883,0.39069730043411255
1771525734439339500,3.393339599609375,-0.44618988037109375,-0.1826162338256836,0.28895121812820435
1771525734449342200,3.40334228515625,-0.33934110403060913,-0.1969623565673828,0.18641917407512665
1771525734459345000,3.413344970703125,-0.3046620488166809,-0.14983844757080078,0.2860402464866638
1771525734469347600,3.42334765625,-0.33205658197402954,-0.11756229400634766,0.3453645706176758
1771525734479350500,3.4333505859375,-0.3212382197380066,-0.11876773834228516,0.3657943308353424
1771525734489353200,3.443353271484375,-0.2440129518508911,-0.06350326538085938,0.32478034496307373
1771525734499356000,3.45335595703125,-0.22760337591171265,0.023637771606445312,0.3081306219100952
1771525734509358600,3.463358642578125,-0.29943108558654785,0.09976482391357422,0.27282071113586426
1771525734519361300,3.473361328125,-0.35464006662368774,0.1603832244873047,0.26573050022125244
1771525734529364000,3.483364013671875,-0.42586076259613037,0.2198019027709961,0.2866811454296112
1771525734539366700,3.49336669921875,-0.48415690660476685,0.24503517150878906,0.29286104440689087
1771525734549369300,3.503369384765625,-0.5258393287658691,0.2885313034057617,0.25634264945983887
1771525734559372000,3.5133720703125,-0.6173396110534668,0.3500337600708008,0.15361657738685608
1771525734569374700,3.523374755859375,-0.7157002091407776,0.39162158966064453,0.14049389958381653
1771525734579377400,3.53337744140625,-0.8212147355079651,0.3948326110839844,0.22526434063911438
1771525734589380000,3.543380126953125,-0.9446202516555786,0.45931434631347656,0.35072043538093567
1771525734599382800,3.5533828125,-0.8740866780281067,0.47105979919433594,0.40367648005485535
1771525734609385700,3.5633857421875,-0.8285456895828247,0.5579662322998047,0.45183131098747253
1771525734619388400,3.573388427734375,-0.7739424705505371,0.6009540557861328,0.4869554042816162
1771525734639393800,3.593393798828125,-0.6082664132118225,0.7916450500488281,0.5253429412841797
1771525734649396500,3.603396484375,-0.69019615650177,0.9195594787597656,0.48239460587501526
1771525734659399200,3.613399169921875,-0.677821159362793,1.0642127990722656,0.4044719338417053
1771525734669401900,3.62340185546875,-0.5787038207054138,1.1924962997436523,0.3199843466281891
1771525734679404500,3.633404541015625,-0.3559724688529968,1.3847074508666992,0.24215573072433472
1771525734689407200,3.6434072265625,-0.2552567720413208,1.5314159393310547,0.17915281653404236
1771525734699410000,3.653409912109375,-0.24495548009872437,1.7232732772827148,0.16502121090888977
1771525734709412600,3.66341259765625,-0.28780317306518555,1.8144750595092773,0.15840917825698853
1771525734719415300,3.673415283203125,-0.3844437003135681,1.8674392700195312,0.03549593687057495
1771525734729418200,3.683418212890625,-0.34454333782196045,1.7963905334472656,-0.08850464224815369
1771525734739421000,3.6934208984375,-0.2549518346786499,1.692429542541504,-0.26080960035324097
1771525734749423600,3.703423583984375,-0.16401195526123047,1.4315299987792969,-0.46657124161720276
1771525734759426300,3.71342626953125,-0.13453274965286255,1.2004623413085938,-0.7014580368995667
1771525734769429000,3.723428955078125,-0.05762076377868652,0.9420557022094727,-0.8382419943809509
1771525734779431700,3.733431640625,0.04374682903289795,0.8282136917114258,-0.7289307713508606
1771525734789434400,3.743434326171875,-0.05925250053405762,0.6817760467529297,-0.4824792146682739
1771525734799437000,3.75343701171875,-0.039063334465026855,0.6081457138061523,-0.251094788312912
1771525734809439700,3.763439697265625,0.1944063901901245,0.5641212463378906,-0.10378283262252808
1771525734829445000,3.783445068359375,1.6545995473861694,0.33884429931640625,-0.016009658575057983
1771525734839447800,3.79344775390625,2.3601715564727783,0.08902168273925781,-0.12209087610244751
1771525734849450500,3.803450439453125,2.897801160812378,-0.1812591552734375,-0.3296429216861725
1771525734859453400,3.813453369140625,3.1472182273864746,-0.3625640869140625,-0.43988022208213806
1771525734869456100,3.8234560546875,2.8386282920837402,-0.41225242614746094,-0.4991067051887512
1771525734879458800,3.833458740234375,1.959404706954956,-0.42543601989746094,-0.42799216508865356
1771525734889461500,3.84346142578125,0.7708271741867065,-0.4202251434326172,-0.21244049072265625
1771525734899464200,3.853464111328125,-0.34421461820602417,-0.35732555389404297,-0.04638764262199402
1771525734909467000,3.863466796875,-1.1933259963989258,-0.2791004180908203,-0.14172857999801636
1771525734919469600,3.873469482421875,-1.523576021194458,-0.15659141540527344,-0.3201821446418762
1771525734929472300,3.88347216796875,-1.5562934875488281,-0.07117652893066406,-0.5620630979537964
1771525734939475000,3.893474853515625,-1.287448763847351,-0.09438133239746094,-0.8730247020721436
1771525734949477600,3.9034775390625,-0.7964522242546082,-0.1544504165649414,-1.1404507160186768
1771525734959480300,3.913480224609375,-0.14236438274383545,-0.26111602783203125,-1.1943755149841309
1771525734969483000,3.92348291015625,0.4491235017776489,-0.3811664581298828,-1.1517138481140137
1771525734979485700,3.933485595703125,0.7757240533828735,-0.5196151733398438,-1.0425257682800293
1771525734989488600,3.943488525390625,0.9880752563476562,-0.643214225769043,-0.8429481983184814
1771525734999491300,3.9534912109375,1.0640860795974731,-0.7140617370605469,-0.5849841833114624
1771525735019496700,3.97349658203125,0.992390513420105,-0.9049892425537109,-0.0892382562160492
1771525735029499400,3.98349951171875,0.7340871095657349,-0.992497444152832,0.05130350589752197
1771525735039502000,3.993502197265625,0.43537747859954834,-1.0476694107055664,0.08594107627868652
1771525735049504800,4.0035048828125,0.32842695713043213,-1.1084327697753906,-0.029756516218185425
1771525735059507500,4.013507568359375,0.34094691276550293,-1.2270698547363281,-0.2566382884979248
1771525735069510100,4.02351025390625,0.24334430694580078,-1.2408723831176758,-0.36374926567077637
1771525735079512800,4.033512939453125,0.16902589797973633,-1.3457250595092773,-0.5645553469657898
1771525735089515500,4.043515625,-0.04590713977813721,-1.3548688888549805,-0.6027570962905884
1771525735099518200,4.053518310546875,-0.2423321008682251,-1.449631690979004,-0.6018679141998291
1771525735109521200,4.063521240234375,-0.3941304087638855,-1.4002904891967773,-0.5413119792938232
1771525735119523800,4.07352392578125,-0.4062686562538147,-1.3505058288574219,-0.5159609317779541
1771525735129526500,4.083526611328125,-0.24928659200668335,-1.310007095336914,-0.49645471572875977
1771525735139529200,4.093529296875,-0.0833975076675415,-1.2361202239990234,-0.5206640958786011
1771525735149532000,4.103531982421875,-0.02070450782775879,-1.1435813903808594,-0.6167975664138794
1771525735159534600,4.11353466796875,-0.04642152786254883,-1.0372381210327148,-0.6695848703384399
1771525735169537300,4.123537353515625,-0.10841548442840576,-0.9217967987060547,-0.6510919332504272
1771525735179540000,4.1335400390625,-0.2053934931755066,-0.7782812118530273,-0.6721920967102051
1771525735189542700,4.143542724609375,-0.40028494596481323,-0.5875415802001953,-0.6799908876419067
1771525735199545300,4.15354541015625,-0.5670787692070007,-0.3636589050292969,-0.6933335661888123
1771525735209548000,4.163548095703125,-0.6737440228462219,-0.1495676040649414,-0.6356433629989624
1771525735219550700,4.17355078125,-0.5822408199310303,0.06909465789794922,-0.5878205895423889
1771525735229553400,4.183553466796875,-0.35821622610092163,0.2873239517211914,-0.5778794288635254
1771525735239556400,4.193556396484375,-0.14714264869689941,0.5478096008300781,-0.6014876961708069
1771525735249559000,4.20355908203125,-0.0667298436164856,0.7451972961425781,-0.6489899158477783
1771525735259561700,4.213561767578125,0.0030449628829956055,0.9942750930786133,-0.6966400146484375
1771525735269564400,4.223564453125,-0.014747083187103271,1.1803770065307617,-0.711570143699646
1771525735279567000,4.233567138671875,-0.12169456481933594,1.4232912063598633,-0.6419514417648315
1771525735289569800,4.24356982421875,-0.1390591263771057,1.6228227615356445,-0.6441568732261658
1771525735299572500,4.253572509765625,-0.0020528435707092285,1.8126516342163086,-0.6600197553634644
1771525735309575200,4.2635751953125,0.23694324493408203,1.935415267944336,-0.5271687507629395
1771525735319577900,4.273577880859375,0.5028072595596313,2.0150222778320312,-0.3563051223754883
1771525735329580500,4.28358056640625,0.7306118607521057,2.13260555267334,-0.16686920821666718
1771525735339583200,4.293583251953125,0.735210120677948,2.1829118728637695,0.0791616439819336
1771525735349586000,4.3035859375,0.5975515842437744,2.2569141387939453,0.40151113271713257
1771525735359588600,4.313588623046875,0.2502543330192566,2.3116321563720703,0.6331154108047485
1771525735369591300,4.32359130859375,-0.17545485496520996,2.165773391723633,0.9150425791740417
1771525735379594000,4.333593994140625,-0.3158961534500122,1.9347057342529297,0.9822598695755005
1771525735389596700,4.3435966796875,-0.1361560821533203,1.7286567687988281,0.8933862447738647
1771525735399599400,4.353599365234375,0.41418933868408203,1.4187288284301758,0.6293197870254517
1771525735409602000,4.36360205078125,1.3509984016418457,1.0576772689819336,0.12999293208122253
1771525735419604700,4.373604736328125,2.3700053691864014,0.7646598815917969,-0.28914764523506165
1771525735429607200,4.383607177734375,3.102491855621338,0.40988731384277344,-0.4741828441619873
1771525735439609900,4.39360986328125,3.2274460792541504,0.16958045959472656,-0.5571824312210083
1771525735449612500,4.403612548828125,2.45694637298584,0.09582042694091797,-0.3715883195400238
1771525735459615200,4.413615234375,1.0675933361053467,-0.07869911193847656,0.04763163626194
1771525735469618000,4.423617919921875,-0.09409600496292114,-0.15714645385742188,0.40402519702911377
1771525735479620600,4.43362060546875,-0.9348609447479248,-0.144134521484375,0.5531113743782043
1771525735489623300,4.443623291015625,-1.5035731792449951,-0.20202159881591797,0.6216490864753723
1771525735499626000,4.4536259765625,-1.6858271360397339,-0.23007583618164062,0.5630500316619873
1771525735509628400,4.46362841796875,-1.373840570449829,-0.4335908889770508,0.36059242486953735
1771525735519631000,4.473631103515625,-0.6955230832099915,-0.7022438049316406,0.24923379719257355
1771525735529633800,4.4836337890625,0.1710854172706604,-0.9643411636352539,0.19104883074760437
1771525735539636500,4.493636474609375,1.0545051097869873,-1.1533203125,0.001095607876777649
1771525735549639200,4.50363916015625,1.7079553604125977,-1.3844852447509766,-0.025395885109901428
1771525735559641900,4.513641845703125,1.9792269468307495,-1.605703353881836,0.09858070313930511
1771525735569644500,4.52364453125,1.9373900890350342,-1.7503767013549805,0.21305173635482788
1771525735579647200,4.533647216796875,1.7647085189819336,-1.938262939453125,0.22115272283554077
1771525735589649700,4.543649658203125,1.5151731967926025,-2.102642059326172,0.19716668128967285
1771525735599652400,4.55365234375,1.1425546407699585,-2.2629570960998535,0.22425934672355652
1771525735619657700,4.57365771484375,0.33008694648742676,-2.379753589630127,0.012991070747375488
1771525735629660400,4.583660400390625,0.17624437808990479,-2.3788962364196777,-0.1413484364748001
1771525735639663000,4.5936630859375,0.011132597923278809,-2.3210253715515137,-0.14685310423374176
1771525735649665800,4.603665771484375,-0.05191242694854736,-2.3111863136291504,-0.07165339589118958
1771525735659668500,4.61366845703125,0.04562985897064209,-2.325557231903076,-0.0918886661529541
1771525735669671000,4.6236708984375,-0.05483043193817139,-2.2016491889953613,-0.09822005033493042
1771525735679673600,4.633673583984375,-0.12532591819763184,-2.097203254699707,-0.0674784779548645
1771525735689676300,4.64367626953125,-0.11883032321929932,-1.9930086135864258,-0.027802079916000366
1771525735699679000,4.653678955078125,-0.09758830070495605,-1.8222417831420898,0.06019100546836853
1771525735709681700,4.663681640625,-0.09087461233139038,-1.6137065887451172,0.20221462845802307
1771525735719684400,4.673684326171875,0.03968071937561035,-1.4152641296386719,0.2886914312839508
1771525735729687300,4.683687255859375,0.26780539751052856,-1.2271480560302734,0.2288092076778412
1771525735739690000,4.69368994140625,0.21315336227416992,-0.9396343231201172,0.14176735281944275
1771525735749692700,4.703692626953125,0.1763240098953247,-0.6340055465698242,0.10301309823989868
1771525735759695400,4.7136953125,0.02826368808746338,-0.27679443359375,0.08255019783973694
1771525735769698000,4.723697998046875,-0.2130391001701355,0.041268348693847656,0.14241501688957214
1771525735779700700,4.73370068359375,-0.34532445669174194,0.3348674774169922,0.22145530581474304
1771525735789703400,4.743703369140625,-0.2359815239906311,0.6184167861938477,0.12939533591270447
1771525735799706000,4.7537060546875,-0.05656701326370239,0.934849739074707,0.052423328161239624
1771525735809708800,4.763708740234375,0.08798056840896606,1.2267942428588867,0.06535807251930237
1771525735819711500,4.77371142578125,0.2592669725418091,1.4370689392089844,0.14304903149604797
1771525735829714200,4.783714111328125,0.36168354749679565,1.5467586517333984,0.21858882904052734
1771525735839716900,4.793716796875,0.40773868560791016,1.7234220504760742,0.28232911229133606
1771525735849719600,4.803719482421875,0.4870043396949768,1.7950153350830078,0.17186501622200012
1771525735859722500,4.813722412109375,0.6281837821006775,1.9002971649169922,0.3413626253604889
1771525735869725200,4.82372509765625,0.900496244430542,1.914780616760254,0.37086522579193115
1771525735879727900,4.833727783203125,1.1501884460449219,2.077204704284668,0.390421599149704
1771525735889730600,4.84373046875,1.1371492147445679,2.3200559616088867,0.44903528690338135
1771525735899733200,4.853733154296875,0.7773192524909973,2.547427177429199,0.5156136155128479
1771525735909736000,4.86373583984375,0.3996676206588745,2.5969467163085938,0.3826114535331726
1771525735919738600,4.873738525390625,0.001679539680480957,2.612502098083496,0.12286549806594849
1771525735929741300,4.8837412109375,-0.3128909170627594,2.3604164123535156,-0.27590662240982056
1771525735939744000,4.893743896484375,-0.10793161392211914,2.0042381286621094,-0.8480271100997925
1771525735949746700,4.90374658203125,0.5703928470611572,1.5827255249023438,-1.4398517608642578
1771525735959749400,4.913749267578125,1.3422541618347168,1.1773796081542969,-1.7008132934570312
1771525735969752000,4.923751953125,2.0583927631378174,0.7977275848388672,-1.7281278371810913
1771525735979755000,4.933755126953125,2.2588629722595215,0.3671865463256836,-1.410080909729004
1771525735989757700,4.9437578125,1.9265518188476562,0.16760635375976562,-0.9031248092651367
1771525735999760400,4.953760498046875,1.3390371799468994,0.11710071563720703,-0.3983398377895355
1771525736009763000,4.96376318359375,0.8061398267745972,0.04796028137207031,0.039473116397857666
1771525736019765800,4.973765869140625,0.465185284614563,0.07942771911621094,0.31223899126052856
1771525736029768400,4.9837685546875,0.49304401874542236,0.029577255249023438,0.2848915755748749
1771525736039771100,4.993771240234375,0.7289491891860962,0.1229400634765625,0.3213258683681488
1771525736049773800,5.00377392578125,0.9317718744277954,0.13937759399414062,0.19390404224395752
1771525736059776500,5.013776611328125,1.1069879531860352,0.11266517639160156,0.013618826866149902
1771525736069779200,5.023779296875,1.2789921760559082,-0.06687355041503906,-0.23633351922035217
1771525736079782000,5.033781982421875,1.3196765184402466,-0.3128929138183594,-0.44798731803894043
1771525736089784600,5.04378466796875,1.3978207111358643,-0.6205549240112305,-0.6563968062400818
1771525736099787300,5.053787353515625,1.4094794988632202,-0.918177604675293,-0.8583815097808838
1771525736109790200,5.063790283203125,1.2981246709823608,-1.1437854766845703,-0.8161121606826782
1771525736119793000,5.07379296875,1.0574373006820679,-1.4359197616577148,-0.6501168012619019
1771525736129795600,5.083795654296875,0.8198819160461426,-1.7226486206054688,-0.48909837007522583
1771525736139798300,5.09379833984375,0.5477439165115356,-2.051881790161133,-0.3357385993003845
1771525736149801000,5.103801025390625,0.34742164611816406,-2.3091092109680176,-0.15852805972099304
1771525736159803600,5.1138037109375,0.14239871501922607,-2.494555950164795,-0.17626091837882996
1771525736169806300,5.123806396484375,-0.05422043800354004,-2.5413565635681152,-0.26560869812965393
1771525736179809000,5.13380908203125,-0.1481395959854126,-2.578644275665283,-0.2797389328479767
1771525736189811700,5.143811767578125,-0.21245580911636353,-2.5967307090759277,-0.21982122957706451
1771525736199814400,5.153814453125,-0.1849561333656311,-2.6339011192321777,-0.18600669503211975
1771525736209817000,5.163817138671875,-0.1409693956375122,-2.537437915802002,-0.10049217939376831
1771525736219819800,5.17381982421875,-0.1376734972000122,-2.451005458831787,0.051751792430877686
1771525736229822700,5.18382275390625,-0.19957029819488525,-2.2837882041931152,0.013928413391113281
1771525736239825400,5.193825439453125,-0.269902765750885,-2.083683967590332,-0.08896121382713318
1771525736249828000,5.203828125,-0.3163444995880127,-1.8745594024658203,-0.17034733295440674
1771525736259830800,5.213830810546875,-0.5126656293869019,-1.6896648406982422,-0.26003217697143555
1771525736269833500,5.22383349609375,-0.364113986492157,-1.4713935852050781,-0.3534855246543884
1771525736279836200,5.233836181640625,-0.004312336444854736,-1.1578216552734375,-0.5371959209442139
1771525736289838800,5.2438388671875,0.47786611318588257,-0.8496885299682617,-0.6784721612930298
1771525736299841500,5.253841552734375,0.8388816118240356,-0.5092172622680664,-0.8120137453079224
1771525736309844200,5.26384423828125,0.9485359191894531,-0.18932437896728516,-0.8755794763565063
1771525736319847000,5.273846923828125,0.7923540472984314,0.17697620391845703,-0.8205094933509827
1771525736329849600,5.283849609375,0.4062080383300781,0.5564117431640625,-0.6698662042617798
1771525736339852300,5.293852294921875,0.4078230857849121,0.8871297836303711,-0.5792107582092285
1771525736349855000,5.30385498046875,0.5179997086524963,1.1311044692993164,-0.6715497970581055
1771525736359858000,5.31385791015625,0.28772783279418945,1.5560741424560547,-0.5997699499130249
1771525736369860600,5.323860595703125,0.37095963954925537,1.7843313217163086,-0.4785900115966797
1771525736379863300,5.33386328125,0.6657348871231079,2.040959358215332,-0.46245086193084717
1771525736389866000,5.343865966796875,0.9736579060554504,2.2301836013793945,-0.3329651653766632
1771525736399868400,5.353868408203125,1.1482341289520264,2.3425378799438477,-0.19201265275478363
1771525736409871000,5.36387109375,1.2758187055587769,2.4929075241088867,-0.2946961224079132
1771525736419873800,5.373873779296875,1.2439429759979248,2.709784507751465,-0.25079578161239624
1771525736429876500,5.38387646484375,0.7516779899597168,2.9691991806030273,-0.07529890537261963
1771525736439879200,5.393879150390625,-0.018254518508911133,3.2092485427856445,0.28101441264152527
1771525736449881900,5.4038818359375,-0.7312443256378174,3.2964344024658203,0.8695701956748962
1771525736459884500,5.413884521484375,-0.9632832407951355,3.1786842346191406,1.2754348516464233
1771525736469887200,5.42388720703125,-0.48524951934814453,2.91385555267334,1.182781457901001
1771525736479889700,5.4338896484375,0.5573909282684326,2.4256105422973633,0.884782612323761
1771525736509897700,5.463897705078125,3.633929967880249,0.9862041473388672,-0.14146792888641357
1771525736519900400,5.473900390625,3.2224531173706055,0.7972269058227539,0.07777237892150879
1771525736529903000,5.483903076171875,2.066462278366089,0.5367059707641602,0.5323917865753174
1771525736539905800,5.49390576171875,0.7470606565475464,0.30071449279785156,0.8702298998832703
1771525736549908500,5.503908447265625,-0.23089295625686646,0.11805438995361328,1.007490634918213
1771525736559911000,5.513910888671875,-0.8207319378852844,-0.06372928619384766,1.0765304565429688
1771525736569913600,5.52391357421875,-1.0545650720596313,-0.20624065399169922,0.9725885391235352
1771525736579916300,5.533916259765625,-1.0007022619247437,-0.5004196166992188,0.7511532306671143
1771525736589919000,5.5439189453125,-0.5011855363845825,-0.8883495330810547,0.5038686990737915
1771525736599921700,5.553921630859375,0.17016339302062988,-1.2647247314453125,0.3450658321380615
1771525736609924400,5.56392431640625,0.7754618525505066,-1.6108055114746094,0.3289485275745392
1771525736619927000,5.573927001953125,1.1275004148483276,-1.9173879623413086,0.3245543837547302
1771525736639932200,5.59393212890625,1.3686449527740479,-2.523101329803467,0.47780653834342957
1771525736649934800,5.603934814453125,1.147359848022461,-2.73691463470459,0.5017642974853516
1771525736659937500,5.6139375,0.8757585287094116,-2.9411869049072266,0.37713423371315
1771525736669940200,5.623940185546875,0.7257554531097412,-3.107417106628418,0.2355881631374359
1771525736679943000,5.63394287109375,0.5561158657073975,-3.1787800788879395,0.06914806365966797
1771525736689945600,5.643945556640625,0.30427682399749756,-3.203307628631592,-0.07817289233207703
1771525736699948300,5.6539482421875,0.0883030891418457,-3.1809325218200684,-0.28824254870414734
1771525736709951000,5.663950927734375,-0.1806163787841797,-3.097031593322754,-0.40083837509155273
1771525736729956000,5.6839560546875,-0.32166045904159546,-2.9056692123413086,-0.3913220763206482
1771525736739958800,5.693958740234375,-0.26605021953582764,-2.7743091583251953,-0.2754218578338623
1771525736749961500,5.70396142578125,-0.19140738248825073,-2.5954527854919434,-0.1709945797920227
1771525736759964200,5.713964111328125,-0.06831085681915283,-2.4314627647399902,-0.07661876082420349
1771525736769966800,5.723966796875,0.008674860000610352,-2.225135326385498,-0.05371376872062683
1771525736779969500,5.733969482421875,0.04932284355163574,-1.9479284286499023,-0.0925929844379425
1771525736789972200,5.74397216796875,0.02469778060913086,-1.6142616271972656,-0.15578502416610718
1771525736799974700,5.753974609375,-0.026949167251586914,-1.2337722778320312,-0.17246803641319275
1771525736809977300,5.763977294921875,-0.21503305435180664,-0.8496236801147461,-0.1040228009223938
1771525736819980000,5.77397998046875,-0.30702245235443115,-0.4950990676879883,-0.09265404939651489
1771525736829983000,5.78398291015625,-0.23785167932510376,-0.107879638671875,-0.19026994705200195
1771525736839985700,5.793985595703125,-0.07428967952728271,0.2594108581542969,-0.25946637988090515
1771525736849988400,5.80398828125,0.20395588874816895,0.6162919998168945,-0.2493095099925995
1771525736859991000,5.813990966796875,0.5358104705810547,0.9148721694946289,-0.11658823490142822
1771525736879996400,5.833996337890625,0.9077258110046387,1.4228572845458984,0.34582096338272095
1771525736889999000,5.8439990234375,1.0369964838027954,1.6320743560791016,0.5349749326705933
1771525736900001800,5.854001708984375,0.9665753245353699,1.921280860900879,0.7364973425865173
1771525736910004500,5.86400439453125,0.7218267917633057,2.3050403594970703,0.9355423450469971
1771525736920007200,5.874007080078125,0.5547623038291931,2.468520164489746,0.8399004340171814
1771525736930009900,5.884009765625,0.7572593688964844,2.8472633361816406,0.9420225620269775
1771525736940012500,5.894012451171875,1.0162345170974731,3.0440359115600586,0.7623109817504883
1771525736950015200,5.90401513671875,1.192611813545227,3.589101791381836,0.7691277265548706
1771525736960018200,5.91401806640625,0.6534104347229004,3.5213937759399414,0.13955259323120117
1771525736970020900,5.924020751953125,0.32061636447906494,3.7170000076293945,0.16141146421432495
1771525736980023600,5.9340234375,0.20222800970077515,3.411219596862793,-0.2891799211502075
1771525736990026200,5.944026123046875,0.4762498736381531,3.154817581176758,-0.7853717803955078
1771525737000029000,5.95402880859375,1.342257022857666,2.6756973266601562,-1.1256213188171387
1771525737010031600,5.964031494140625,2.5384554862976074,2.1222124099731445,-1.2817997932434082
1771525737020034300,5.974034423828125,3.2625935077667236,1.4985332489013672,-1.132820725440979
1771525737030037000,5.984037109375,3.1988348960876465,1.0714960098266602,-0.8319202661514282
1771525737040039700,5.994039794921875,2.1890220642089844,0.9070396423339844,-0.3863016963005066
1771525737050042400,6.00404248046875,0.6963561773300171,0.7278861999511719,0.0417439341545105
1771525737060045000,6.014045166015625,-0.5285923480987549,0.5826311111450195,0.12650209665298462
1771525737070047700,6.0240478515625,-1.2734402418136597,0.4049263000488281,0.09927195310592651
1771525737080050700,6.03405078125,-1.6664918661117554,0.30025482177734375,0.07557451725006104
1771525737090053400,6.044053466796875,-1.8129422664642334,0.1257648468017578,0.001234203577041626
1771525737100056000,6.05405615234375,-1.184781551361084,-0.15121936798095703,-0.1847953498363495
1771525737110058800,6.064058837890625,-0.15800034999847412,-0.5356845855712891,-0.4328250586986542
1771525737120061400,6.0740615234375,0.727770209312439,-0.8755178451538086,-0.63055419921875
1771525737130064100,6.084064208984375,1.2222849130630493,-1.2386589050292969,-0.7833333015441895
1771525737140066800,6.09406689453125,1.2362306118011475,-1.4962949752807617,-0.9538472890853882
1771525737150069500,6.104069580078125,0.9887502193450928,-1.686802864074707,-0.7934316396713257
1771525737160072200,6.114072265625,0.8085973262786865,-2.015669822692871,-0.5740945339202881
1771525737170075000,6.124074951171875,0.7334780693054199,-2.1530232429504395,-0.524527907371521
1771525737180077600,6.13407763671875,0.7445968389511108,-2.3239798545837402,-0.5155913829803467
1771525737190080300,6.144080322265625,0.6665440797805786,-2.5096592903137207,-0.4849150776863098
1771525737200083000,6.1540830078125,0.5538607835769653,-2.657834053039551,-0.427877277135849
1771525737210086000,6.1640859375,0.41752755641937256,-2.8453149795532227,-0.24360759556293488
1771525737220088600,6.174088623046875,0.24203133583068848,-2.914229393005371,-0.15169912576675415
1771525737230091300,6.18409130859375,0.09334397315979004,-2.8838138580322266,-0.028208628296852112
1771525737240094000,6.194093994140625,0.050953030586242676,-2.754092216491699,0.13834311068058014
1771525737250096600,6.2040966796875,-0.024426579475402832,-2.740182876586914,0.15312570333480835
1771525737260099300,6.214099365234375,-0.07379889488220215,-2.4591526985168457,0.09785288572311401
1771525737270102000,6.22410205078125,0.028562545776367188,-2.3506293296813965,0.04580588638782501
1771525737280104700,6.234104736328125,0.11132872104644775,-2.032191276550293,-0.0664355456829071
1771525737290107400,6.244107421875,0.22312664985656738,-1.8913593292236328,-0.19172440469264984
1771525737300110000,6.254110107421875,0.303561806678772,-1.6413688659667969,-0.4207700490951538
1771525737330118100,6.2841181640625,0.4314146041870117,-0.7622261047363281,-0.7822520732879639
1771525737340120800,6.294120849609375,0.5207517147064209,-0.4962778091430664,-0.9034883379936218
1771525737350123500,6.30412353515625,0.630933403968811,-0.0831146240234375,-1.0977247953414917
1771525737360126200,6.314126220703125,0.7160487174987793,0.2378072738647461,-1.1824458837509155
1771525737370129000,6.32412890625,0.7251299619674683,0.6193866729736328,-1.2195791006088257
1771525737380131600,6.334131591796875,0.6434831619262695,0.9803972244262695,-1.2902724742889404
1771525737390134300,6.34413427734375,0.5552477836608887,1.3832988739013672,-1.1743221282958984
1771525737400136700,6.35413671875,0.4618033170700073,1.7281131744384766,-1.090731143951416
1771525737410139400,6.364139404296875,0.2877168655395508,2.1874256134033203,-0.9368821978569031
1771525737420142000,6.37414208984375,0.8816001415252686,2.4357099533081055,-0.5430115461349487
1771525737430144800,6.384144775390625,1.0589227676391602,2.6260929107666016,-0.262535035610199
1771525737440147500,6.3941474609375,1.1812865734100342,2.7780933380126953,-0.09536722302436829
1771525737450150100,6.404150146484375,1.3690190315246582,2.9633684158325195,-0.0658722072839737
1771525737460152800,6.41415283203125,1.1050519943237305,3.076399803161621,0.17275531589984894
1771525737470155500,6.424155517578125,0.43859660625457764,3.279787063598633,0.5039445161819458
1771525737480158000,6.434157958984375,-0.258620023727417,3.415848731994629,1.0398317575454712
1771525737490160600,6.44416064453125,-0.9190518856048584,3.3274240493774414,1.4328545331954956
1771525737500163300,6.454163330078125,-0.9759434461593628,3.173140525817871,1.2354906797409058
1771525737510166000,6.464166015625,-0.4206271767616272,2.967432975769043,0.859582781791687
1771525737520168700,6.474168701171875,0.528954803943634,2.5430688858032227,0.506766676902771
1771525737530171400,6.48417138671875,1.5895795822143555,2.158254623413086,0.01677355356514454
1771525737540174000,6.494174072265625,2.2857155799865723,1.8218612670898438,-0.28757697343826294
1771525737550176800,6.5041767578125,2.234509229660034,1.5143585205078125,-0.18040603399276733
1771525737560179200,6.51417919921875,2.485604763031006,1.0492734909057617,0.17450548708438873
1771525737570182000,6.524181884765625,0.04999351501464844,1.1485280990600586,0.34650444984436035
1771525737580184600,6.5341845703125,-0.7408592700958252,0.785099983215332,0.894795835018158
1771525737590187300,6.544187255859375,-0.9246727824211121,0.7343215942382812,0.6322816014289856
1771525737600190000,6.55418994140625,-0.8832905888557434,0.42237186431884766,0.33339303731918335
1771525737610192600,6.564192626953125,-0.14644956588745117,0.25571250915527344,0.15305547416210175
1771525737620195300,6.5741953125,0.5072271227836609,-0.2823038101196289,-0.0757199376821518
1771525737630198000,6.584197998046875,1.0356838703155518,-0.7899255752563477,-0.08805805444717407
1771525737650203100,6.604203125,1.751702070236206,-1.7964553833007812,-0.16382083296775818
1771525737660205800,6.614205810546875,2.0257604122161865,-2.128647804260254,-0.16477087140083313
1771525737670208500,6.62420849609375,2.097750663757324,-2.4223580360412598,-0.27654632925987244
1771525737680211200,6.634211181640625,1.8349696397781372,-2.739879608154297,-0.07959923148155212
1771525737690214000,6.6442138671875,1.471938133239746,-2.9949951171875,0.32056888937950134
1771525737700216600,6.654216552734375,1.0638127326965332,-3.264357089996338,0.5131064653396606
1771525737710219300,6.66421923828125,0.6788578629493713,-3.4285340309143066,0.6948713064193726
1771525737720221700,6.6742216796875,0.18134033679962158,-3.5258212089538574,0.7335779070854187
1771525737730224400,6.684224365234375,-0.17794257402420044,-3.6803598403930664,0.5717844367027283
1771525737740227000,6.69422705078125,-0.35251230001449585,-3.7438879013061523,0.36601001024246216
1771525737750229800,6.704229736328125,-0.5786021947860718,-3.73085880279541,0.09452781081199646
1771525737760232400,6.714232421875,-0.864483118057251,-3.6412129402160645,-0.22695842385292053
1771525737770235100,6.724235107421875,-0.9123519062995911,-3.532214641571045,-0.4378367066383362
1771525737780237800,6.73423779296875,-0.7460770606994629,-3.3753037452697754,-0.5099700689315796
1771525737790240500,6.744240478515625,-0.6034351587295532,-3.151599407196045,-0.36219435930252075
1771525737800243000,6.754242919921875,-0.40220773220062256,-2.8660812377929688,-0.256919264793396
1771525737810245600,6.76424560546875,-0.13567155599594116,-2.5906949043273926,-0.2079431116580963
1771525737820248300,6.774248291015625,-0.112559974193573,-2.253905773162842,-0.000003557652235031128
1771525737830251000,6.7842509765625,-0.10316383838653564,-1.8892498016357422,0.272628515958786
1771525737840253700,6.794253662109375,0.009070217609405518,-1.539947509765625,0.4258493185043335
1771525737850256400,6.80425634765625,0.05846971273422241,-1.0771827697753906,0.4862746298313141
1771525737860259000,6.814259033203125,-0.007989168167114258,-0.6206388473510742,0.6614966988563538
1771525737870261800,6.82426171875,-0.0005453824996948242,-0.08899879455566406,0.8996708393096924
1771525737880264400,6.834264404296875,-0.15063345432281494,0.05917930603027344,0.5634373426437378
1771525737890267100,6.84426708984375,0.2128545045852661,0.5033597946166992,0.6749497056007385
1771525737900269800,6.854269775390625,0.4265812635421753,0.9990386962890625,0.7542425394058228
1771525737910272500,6.8642724609375,0.45447635650634766,1.1399593353271484,0.5169920921325684
1771525737920275200,6.874275146484375,0.3901051878929138,1.5481653213500977,0.5041259527206421
1771525737930278000,6.88427783203125,0.37076377868652344,1.8266820907592773,0.3235207796096802
1771525737940280600,6.894280517578125,0.3285509943962097,2.1717710494995117,0.29494112730026245
1771525737950283300,6.904283203125,0.3521685004234314,2.521388053894043,0.289048433303833
1771525737960286000,6.914285888671875,0.5961772799491882,2.9374818801879883,0.2906724214553833
1771525737970288600,6.92428857421875,0.6426002979278564,3.2094078063964844,0.31188759207725525
1771525737980291300,6.934291259765625,0.5127084255218506,3.5379037857055664,0.11174751818180084
1771525737990294300,6.944294189453125,-0.017520904541015625,3.836836814880371,-0.12313582003116608
1771525738000297000,6.954296875,-0.5563665628433228,3.715184211730957,-0.31564921140670776
1771525738010299600,6.964299560546875,-0.8011581897735596,3.5043935775756836,-0.6025718450546265
1771525738030305000,6.984304931640625,0.47501158714294434,3.101689338684082,-0.9513257741928101
1771525738040307700,6.9943076171875,1.9690886735916138,2.7144861221313477,-0.9424631595611572
1771525738050310400,7.004310302734375,3.6628599166870117,2.2294235229492188,-0.8414145112037659
1771525738060313000,7.01431298828125,4.703441619873047,1.9260978698730469,-0.4239378869533539
1771525738070315800,7.024315673828125,4.3091936111450195,1.6205329895019531,0.3182266354560852
1771525738090321200,7.044321044921875,1.8027852773666382,1.0875186920166016,0.5915713310241699
1771525738100323800,7.05432373046875,1.1543326377868652,1.1284151077270508,0.5669717788696289
1771525738110326800,7.064326904296875,0.012434720993041992,0.4654827117919922,0.6626085042953491
1771525738130332200,7.084332275390625,-0.3989773988723755,0.4229116439819336,-0.26020681858062744
1771525738140334800,7.0943349609375,0.044213294982910156,0.02529621124267578,-0.6479637622833252
1771525738150337500,7.104337646484375,0.6109516620635986,-0.3320741653442383,-0.7916841506958008
1771525738160340200,7.11434033203125,0.9964920282363892,-0.7028770446777344,-0.9607930779457092
1771525738170343000,7.124343017578125,1.0799007415771484,-1.0876636505126953,-0.957870602607727
1771525738180345600,7.134345703125,0.9830924272537231,-1.4294586181640625,-1.008021354675293
1771525738190348300,7.144348388671875,0.6811486482620239,-1.7377128601074219,-1.0003408193588257
1771525738200351000,7.15435107421875,0.3491806983947754,-2.0169458389282227,-0.8425365686416626
1771525738210353700,7.164353759765625,0.19834434986114502,-2.267460346221924,-0.6381884217262268
1771525738230359000,7.184359130859375,-0.06465303897857666,-2.6070308685302734,-0.18207471072673798
1771525738240362000,7.194362060546875,-0.16138684749603271,-2.653707504272461,-0.11018463969230652
1771525738250364700,7.20436474609375,-0.2004246711730957,-2.682156562805176,-0.1271493285894394
1771525738260367400,7.214367431640625,-0.29644668102264404,-2.6159868240356445,-0.17625664174556732
1771525738270370000,7.2243701171875,-0.4228247404098511,-2.502737522125244,-0.2729574143886566
1771525738280372700,7.234372802734375,-0.43966758251190186,-2.3943581581115723,-0.342598021030426
1771525738290375400,7.24437548828125,-0.3707062005996704,-2.3051962852478027,-0.4066137671470642
1771525738300378000,7.254378173828125,-0.276128888130188,-2.230813503265381,-0.3457587957382202
1771525738310380500,7.264380615234375,-0.28468215465545654,-2.042269706726074,-0.32163357734680176
1771525738320383200,7.27438330078125,-0.4439687728881836,-1.8449153900146484,-0.2185879945755005
1771525738330386000,7.284385986328125,-0.7265176773071289,-1.662440299987793,-0.10519450902938843
1771525738340388600,7.294388671875,-0.8617381453514099,-1.3846797943115234,-0.13146911561489105
1771525738350391300,7.304391357421875,-0.7550421357154846,-1.0500450134277344,-0.1904115229845047
1771525738360394000,7.31439404296875,-0.40566349029541016,-0.6637125015258789,-0.3008849620819092
1771525738370396700,7.324396728515625,0.07327044010162354,-0.2022409439086914,-0.38783901929855347
1771525738380399400,7.3343994140625,0.6030515432357788,0.19525146484375,-0.4003882110118866
1771525738390401800,7.34440185546875,1.0703850984573364,0.5383176803588867,-0.5171943306922913
1771525738400404500,7.354404541015625,1.305571436882019,0.7838811874389648,-0.6211193799972534
1771525738410407200,7.3644072265625,1.2528178691864014,1.0802278518676758,-0.7045304775238037
1771525738420409900,7.374409912109375,0.9763907194137573,1.3896484375,-0.6438707709312439
1771525738430412500,7.38441259765625,0.5383396148681641,1.6890497207641602,-0.428020179271698
1771525738440415200,7.394415283203125,0.28199148178100586,1.9792003631591797,-0.2644532322883606
1771525738450418000,7.40441796875,0.28152620792388916,2.226808547973633,-0.13659922778606415
1771525738460420600,7.414420654296875,0.4887508153915405,2.3745346069335938,-0.11523561179637909
1771525738470423000,7.424423095703125,1.0141689777374268,2.5466156005859375,-0.12934575974941254
1771525738480425700,7.43442578125,1.4323750734329224,2.6945581436157227,-0.2150266021490097
1771525738490428400,7.444428466796875,1.247658133506775,2.8416566848754883,-0.03144536912441254
1771525738500431000,7.45443115234375,0.2793639898300171,2.8638553619384766,0.36752045154571533
1771525738510433800,7.464433837890625,-1.0212130546569824,2.75299072265625,0.9177998900413513
1771525738520436500,7.4744365234375,-1.872834324836731,2.563243865966797,1.2484418153762817
1771525738530439200,7.484439208984375,-1.6816961765289307,2.3719186782836914,1.0687366724014282
1771525738540441900,7.49444189453125,-0.4546319246292114,2.088350296020508,0.527287483215332
1771525738550444500,7.504444580078125,1.3695456981658936,1.693068504333496,-0.12331128865480423
1771525738560447000,7.514447021484375,3.0574450492858887,1.3043804168701172,-0.5477464199066162
1771525738570449700,7.52444970703125,3.960643768310547,0.9638652801513672,-0.49041059613227844
1771525738580452400,7.534452392578125,3.738504648208618,0.6369190216064453,-0.07550972700119019
1771525738590455000,7.544455078125,2.674306631088257,0.35214900970458984,0.404617041349411
1771525738600457700,7.554457763671875,1.390928864479065,0.12437248229980469,0.7924113869667053
1771525738610460400,7.56446044921875,0.18925917148590088,-0.0935983657836914,0.871468186378479
1771525738620463000,7.574463134765625,-0.6518593430519104,-0.11915779113769531,0.7259157299995422
1771525738630465800,7.5844658203125,-1.2321979999542236,-0.32477474212646484,0.5904616713523865
1771525738640468200,7.59446826171875,-1.292586088180542,-0.5613460540771484,0.21993614733219147
1771525738650471000,7.604470947265625,-0.7774706482887268,-0.8476343154907227,-0.27690589427948
1771525738660473600,7.6144736328125,-0.05061542987823486,-1.198603630065918,-0.5103424787521362
1771525738670476300,7.624476318359375,0.700076699256897,-1.4626789093017578,-0.6279205679893494
1771525738680479000,7.63447900390625,1.0261774063110352,-1.6936779022216797,-0.5265263915061951
1771525738690481700,7.644481689453125,0.9712597131729126,-1.9012775421142578,-0.31209343671798706
1771525738700484400,7.654484375,0.7837809324264526,-2.142754077911377,-0.0020142793655395508
1771525738710487000,7.664487060546875,0.531859278678894,-2.360900402069092,0.2542794942855835
1771525738720489500,7.674489501953125,0.27400267124176025,-2.47481107711792,0.26960650086402893
1771525738730492200,7.6844921875,0.07170581817626953,-2.5276637077331543,0.23760545253753662
1771525738740494800,7.694494873046875,-0.0902106761932373,-2.6341514587402344,0.2790452837944031
1771525738750497500,7.70449755859375,-0.16264760494232178,-2.6893815994262695,0.33735132217407227
1771525738760500200,7.714500244140625,-0.1879178285598755,-2.712794303894043,0.3562462031841278
1771525738770503000,7.7245029296875,-0.2868150472640991,-2.7042083740234375,0.25405922532081604
1771525738780505600,7.734505615234375,-0.354708194732666,-2.6778717041015625,0.14893777668476105
1771525738790508300,7.74450830078125,-0.4926072359085083,-2.638430595397949,0.09762022644281387
1771525738810513400,7.764513427734375,-0.9268207550048828,-2.3271985054016113,0.08829057961702347
1771525738820516000,7.77451611328125,-1.1772005558013916,-2.030545711517334,0.07627169042825699
1771525738830518800,7.784518798828125,-1.4178736209869385,-1.714468002319336,0.17800316214561462
1771525738840521500,7.794521484375,-1.3780488967895508,-1.3931407928466797,0.23195229470729828
1771525738850524200,7.804524169921875,-1.0467326641082764,-0.9762611389160156,0.26326602697372437
1771525738860526800,7.81452685546875,-0.6994267702102661,-0.5361385345458984,0.35809436440467834
1771525738870529500,7.824529541015625,-0.3438549041748047,-0.18779850006103516,0.3966487944126129
1771525738880532000,7.834531982421875,0.06956756114959717,0.10209941864013672,0.4507378041744232
1771525738890534700,7.84453466796875,0.5001766681671143,0.3380603790283203,0.5010250806808472
1771525738900537300,7.854537353515625,0.734050989151001,0.5821571350097656,0.46572548151016235
1771525738910540000,7.8645400390625,0.7439329624176025,0.7864961624145508,0.5212149024009705
1771525738920542700,7.874542724609375,0.6340075731277466,1.0517444610595703,0.4391697645187378
1771525738930545400,7.88454541015625,0.3952765464782715,1.402409553527832,0.21935169398784637
1771525738940548000,7.894548095703125,0.09935438632965088,1.67193603515625,0.15216286480426788
1771525738950550800,7.90455078125,0.08585786819458008,1.9805898666381836,0.04128611087799072
1771525738960553200,7.91455322265625,0.4688241481781006,2.35211181640625,-0.08584155142307281
1771525738970556000,7.924555908203125,0.7097634077072144,2.7430200576782227,0.003309383988380432
1771525738980558600,7.93455859375,0.9462915658950806,3.071533203125,0.19309790432453156
1771525738990561300,7.944561279296875,0.8190135955810547,3.4470863342285156,0.27013108134269714
1771525739000564000,7.95456396484375,0.33568692207336426,3.601734161376953,0.37950846552848816
1771525739010566700,7.964566650390625,-0.25721025466918945,3.6223907470703125,0.5472413301467896
1771525739020569300,7.9745693359375,-0.7265927195549011,3.3819570541381836,0.31283798813819885
1771525739030572000,7.984572021484375,-0.41391193866729736,3.1638011932373047,0.0002497732639312744
1771525739040574700,7.99457470703125,0.7036911249160767,2.576249122619629,-0.23401790857315063
1771525739050577400,8.004577392578126,2.330197334289551,1.9633121490478516,-0.5676634907722473
1771525739060580000,8.014580078125,3.6371917724609375,1.3516120910644531,-0.8354961276054382
1771525739070582800,8.024582763671875,4.1246209144592285,0.8682441711425781,-0.8706228733062744
1771525739080585500,8.03458544921875,3.390190601348877,0.568791389465332,-0.5292266607284546
1771525739090588200,8.044588134765625,1.8725883960723877,0.3481321334838867,-0.11018000543117523
1771525739100590800,8.0545908203125,0.43920254707336426,0.20269393920898438,0.2558964490890503
1771525739110593500,8.064593505859374,-0.8203566074371338,0.1436147689819336,0.5853407382965088
1771525739120596200,8.07459619140625,-1.6371729373931885,0.16810894012451172,0.5862432718276978
1771525739130599000,8.084598876953125,-1.5311570167541504,-0.02368640899658203,0.22870837152004242
1771525739140601600,8.0946015625,-0.6765767335891724,-0.34099769592285156,-0.20190614461898804
1771525739150604500,8.1046044921875,0.33164238929748535,-0.7657384872436523,-0.7471137642860413
1771525739160607200,8.114607177734374,1.1126704216003418,-1.0742769241333008,-1.2259955406188965
1771525739170610000,8.12460986328125,1.7258524894714355,-1.3923768997192383,-1.4243204593658447
1771525739180612600,8.134612548828125,1.8087036609649658,-1.7403192520141602,-1.0786911249160767
1771525739190615300,8.144615234375,1.3716528415679932,-2.0225772857666016,-0.6846408843994141
1771525739200618000,8.154617919921876,0.7210900783538818,-2.2143750190734863,-0.44927456974983215
1771525739210620700,8.16462060546875,0.21300339698791504,-2.4348082542419434,-0.1869395226240158
1771525739220623400,8.174623291015624,-0.16947078704833984,-2.5974178314208984,0.04446129500865936
1771525739230626000,8.1846259765625,-0.40644943714141846,-2.707408905029297,0.09418021142482758
1771525739240628700,8.194628662109375,-0.40631163120269775,-2.7604141235351562,0.04313157498836517
1771525739250631400,8.20463134765625,-0.30725932121276855,-2.761532783508301,-0.1393391340970993
1771525739260634000,8.214634033203126,-0.14997553825378418,-2.7257604598999023,-0.3319926857948303
1771525739270636800,8.22463671875,-0.019780874252319336,-2.615131378173828,-0.4654446840286255
1771525739280639700,8.2346396484375,-0.13358688354492188,-2.5105295181274414,-0.5325933694839478
1771525739290642400,8.244642333984375,-0.29730165004730225,-2.4496026039123535,-0.5621548295021057
1771525739300645000,8.25464501953125,-0.4444591999053955,-2.3365960121154785,-0.49522069096565247
1771525739310647800,8.264647705078126,-0.6663711071014404,-2.2384161949157715,-0.44406911730766296
1771525739320650500,8.274650390625,-0.7634807825088501,-2.054481029510498,-0.5021416544914246
1771525739330653200,8.284653076171875,-0.7883402109146118,-1.8424053192138672,-0.4820759892463684
1771525739340655900,8.29465576171875,-0.8936622142791748,-1.5259275436401367,-0.45491456985473633
1771525739350658600,8.304658447265625,-0.7461217641830444,-1.2244644165039062,-0.5685481429100037
1771525739360661200,8.3146611328125,-0.41659271717071533,-0.7758817672729492,-0.6415232419967651
1771525739370664000,8.324663818359374,-0.16566836833953857,-0.3625812530517578,-0.6598122715950012
1771525739380666600,8.33466650390625,0.017137527465820312,0.18254661560058594,-0.7181998491287231
1771525739390669300,8.34466943359375,0.25044524669647217,0.658782958984375,-0.7733922600746155
1771525739400672000,8.354672119140625,0.5256326198577881,1.0900278091430664,-0.836033046245575
1771525739420677400,8.374677490234374,0.6895314455032349,1.9761962890625,-0.8786590099334717
1771525739430680000,8.38468017578125,0.6154770851135254,2.3224706649780273,-0.6034553050994873
1771525739440682500,8.3946826171875,0.5802525281906128,2.578122138977051,-0.3165105879306793
1771525739450685200,8.404685302734375,0.8936108350753784,2.7768325805664062,-0.1114330142736435
1771525739460688000,8.41468798828125,1.2927865982055664,2.875530242919922,0.07070843875408173
1771525739470690600,8.424690673828126,1.9199315309524536,2.9262561798095703,0.1931632161140442
1771525739480693200,8.434693359375,2.2613823413848877,3.075871467590332,0.127565398812294
1771525739490696000,8.444696044921875,1.8403067588806152,3.208786964416504,0.1539643108844757
1771525739500698600,8.45469873046875,0.5833947658538818,3.325885772705078,0.3974077105522156
1771525739510701300,8.464701416015625,-1.1368181705474854,3.4912290573120117,0.8696439862251282
1771525739520703700,8.474703857421876,-2.4823195934295654,3.45828914642334,1.219391107559204
1771525739530706400,8.48470654296875,-2.505802631378174,3.3627891540527344,1.1904196739196777
1771525739540709000,8.494709228515624,-1.4112941026687622,3.0902366638183594,0.6157869696617126
1771525739550711800,8.5047119140625,0.47617530822753906,2.492177963256836,0.07873937487602234
1771525739560714500,8.514714599609375,2.5310285091400146,1.9118499755859375,-0.3752129077911377
1771525739570717200,8.52471728515625,4.136630058288574,1.2419681549072266,-0.601154088973999
1771525739580719900,8.534719970703126,4.645412445068359,0.6958322525024414,-0.15017105638980865
1771525739590722600,8.54472265625,3.9782705307006836,0.2912635803222656,0.4688307046890259
1771525739600725000,8.55472509765625,2.5940756797790527,0.06631851196289062,0.925736129283905
1771525739610727700,8.564727783203125,1.061098337173462,-0.12661266326904297,1.0941969156265259
1771525739620730400,8.57473046875,-0.3189769983291626,-0.22402286529541016,1.189992904663086
1771525739630733000,8.584733154296876,-1.226081371307373,-0.3153524398803711,1.0964057445526123
1771525739640735700,8.59473583984375,-1.5509045124053955,-0.5861034393310547,0.7849371433258057
1771525739650738400,8.604738525390625,-1.2098398208618164,-0.9207782745361328,0.15570053458213806
1771525739660741000,8.6147412109375,-0.4642266035079956,-1.2668848037719727,-0.44264841079711914
1771525739670743800,8.624743896484375,0.2742685079574585,-1.5964508056640625,-0.8241753578186035
1771525739680746200,8.634746337890626,0.7708876132965088,-2.072671890258789,-0.9617598056793213
1771525739690749000,8.6447490234375,0.9729410409927368,-2.352116107940674,-0.8872458934783936
1771525739700751600,8.654751708984374,0.7910412549972534,-2.626504898071289,-0.6959983110427856
1771525739710754300,8.66475439453125,0.4109112024307251,-2.8573455810546875,-0.4884151220321655
1771525739720757000,8.674757080078125,0.06391191482543945,-3.140585422515869,-0.10274149477481842
1771525739730759700,8.684759765625,-0.4066663980484009,-3.438167095184326,0.23844105005264282
1771525739740762400,8.694762451171876,-0.7292567491531372,-3.449063777923584,0.196318581700325
1771525739750765000,8.70476513671875,-0.8313999176025391,-3.5182905197143555,0.19523662328720093
1771525739760767500,8.714767578125,-0.6232006549835205,-3.516770362854004,0.1069759726524353
1771525739770770200,8.724770263671875,-0.29263007640838623,-3.459834575653076,0.06831628084182739
1771525739780772900,8.73477294921875,-0.13917160034179688,-3.5055675506591797,0.03842306137084961
1771525739790775600,8.744775634765626,0.010423898696899414,-3.4150023460388184,0.044317662715911865
1771525739800778200,8.7547783203125,-0.19828271865844727,-3.3171353340148926,0.08922472596168518
1771525739810781000,8.764781005859374,-0.6211913824081421,-3.077131748199463,0.033492594957351685
1771525739820783600,8.77478369140625,-1.0991485118865967,-2.8377676010131836,0.11416879296302795
1771525739830786300,8.784786376953125,-1.534754991531372,-2.536357879638672,0.21231889724731445
1771525739840788700,8.794788818359375,-1.9628421068191528,-2.0295939445495605,0.2200813889503479
1771525739850791400,8.80479150390625,-2.2999062538146973,-1.5325803756713867,0.24065065383911133
1771525739860794000,8.814794189453124,-2.2144980430603027,-0.9206743240356445,0.09765395522117615
1771525739870796800,8.824796875,-1.6837158203125,-0.3947887420654297,-0.15291209518909454
1771525739880799500,8.834799560546875,-0.9448029398918152,0.1403970718383789,-0.22273042798042297
1771525739890802200,8.84480224609375,-0.15381193161010742,0.6225004196166992,-0.24071823060512543
1771525739900804900,8.854804931640626,0.6450555324554443,0.9746360778808594,-0.1997741311788559
1771525739910807600,8.8648076171875,1.1548125743865967,1.3015594482421875,-0.0869671106338501
1771525739920810000,8.87481005859375,1.1773090362548828,1.507476806640625,0.32413914799690247
1771525739930812700,8.884812744140625,0.9216043949127197,1.7887792587280273,0.7141318321228027
1771525739940815400,8.8948154296875,0.7538793087005615,1.9926156997680664,0.8596000671386719
1771525739950818000,8.904818115234375,0.5210530757904053,2.305356979370117,1.0638041496276855
1771525739960820700,8.91482080078125,0.3918428421020508,2.440582275390625,1.1143697500228882
1771525739970823400,8.924823486328124,0.7033590078353882,2.7717323303222656,0.8027271032333374
1771525739980826000,8.934826171875,0.9741986989974976,2.992436408996582,0.5887733697891235
1771525739990828800,8.944828857421875,1.3159692287445068,3.212613105773926,0.5614798069000244
1771525740000831200,8.954831298828125,1.3946764469146729,3.5029773712158203,0.501133918762207
1771525740020836600,8.974836669921874,-0.37818002700805664,3.7839488983154297,0.07283616065979004
1771525740030839300,8.98483935546875,-0.9390270113945007,3.7401018142700195,-0.2813054323196411
1771525740040842000,8.994842041015625,-0.7591122388839722,3.4748334884643555,-0.5630494952201843
1771525740050844700,9.0048447265625,0.2632192373275757,3.061030387878418,-0.9934282302856445
1771525740060847400,9.014847412109376,1.907989263534546,2.479445457458496,-1.5386152267456055
1771525740070850000,9.02485009765625,3.274874687194824,1.8670282363891602,-1.5796490907669067
1771525740080852500,9.0348525390625,3.615851402282715,1.4225044250488281,-1.2056515216827393
1771525740090855200,9.044855224609375,3.141055107116699,1.0731134414672852,-0.7769736051559448
1771525740100857900,9.05485791015625,2.304985284805298,0.8662528991699219,-0.3917938470840454
1771525740110860500,9.064860595703125,1.4310461282730103,0.7059793472290039,-0.07792240381240845
1771525740120863200,9.07486328125,0.5486292839050293,0.5401067733764648,0.19507122039794922
1771525740130866000,9.084865966796874,-0.013973474502563477,0.4509706497192383,0.20470499992370605
1771525740140868600,9.09486865234375,-0.17085158824920654,0.24829483032226562,-0.026558667421340942
1771525740150871300,9.104871337890625,0.09529328346252441,-0.000293731689453125,-0.2688399851322174
1771525740160873700,9.114873779296875,0.5421197414398193,-0.3856010437011719,-0.47504183650016785
1771525740170876400,9.12487646484375,1.0112266540527344,-0.798126220703125,-0.7993639707565308
1771525740180879000,9.134879150390624,1.3537967205047607,-1.1096067428588867,-1.180272102355957
1771525740190881800,9.1448818359375,1.3970513343811035,-1.5073728561401367,-1.2348788976669312
1771525740200884500,9.154884521484375,0.9562873840332031,-1.8624725341796875,-0.9895904064178467
1771525740210887200,9.16488720703125,0.24559712409973145,-2.179394245147705,-0.6293007135391235
1771525740220889900,9.174889892578125,-0.4026583433151245,-2.5150461196899414,-0.3020039498806
1771525740230892500,9.184892578125,-0.8175654411315918,-2.80721378326416,0.02635595202445984
1771525740240895000,9.19489501953125,-0.9312690496444702,-3.085176944732666,0.2598403990268707
1771525740250897700,9.204897705078125,-0.9088541269302368,-3.2351107597351074,0.34373483061790466
1771525740260900400,9.214900390625,-1.0093932151794434,-3.290595531463623,0.4261689782142639
1771525740270903000,9.224903076171875,-0.8787683248519897,-3.261514186859131,0.4595213830471039
1771525740280905700,9.23490576171875,-0.9875977039337158,-3.229012966156006,0.39013731479644775
1771525740290908400,9.244908447265624,-1.0496572256088257,-2.9299793243408203,0.2191309928894043
1771525740300911000,9.2549111328125,-1.0341218709945679,-2.8421154022216797,0.012747466564178467
1771525740310913800,9.264913818359375,-0.9515563249588013,-2.630366325378418,-0.08561164140701294
1771525740320916200,9.274916259765625,-0.8728923797607422,-2.4815568923950195,-0.03245830535888672
1771525740330919000,9.2849189453125,-0.9041777849197388,-2.232964038848877,-0.11400318145751953
1771525740340921600,9.294921630859376,-0.7887496948242188,-1.9131183624267578,-0.33579641580581665
1771525740350924300,9.30492431640625,-0.5982996225357056,-1.5460805892944336,-0.5507760047912598
1771525740360927000,9.314927001953125,-0.48703932762145996,-1.1651296615600586,-0.6595007181167603
1771525740370929700,9.3249296875,-0.17813313007354736,-0.7702236175537109,-0.7676296234130859
1771525740380932400,9.334932373046875,0.16299641132354736,-0.4095315933227539,-0.9293924570083618
1771525740390935000,9.34493505859375,0.3704575300216675,-0.011527061462402344,-0.8831089735031128
1771525740400937500,9.3549375,0.4105731248855591,0.39038658142089844,-0.8588228821754456
1771525740410940200,9.364940185546875,0.37274062633514404,0.8300333023071289,-0.9865856170654297
1771525740420942800,9.37494287109375,0.374606728553772,1.374542236328125,-0.9888774752616882
1771525740430945500,9.384945556640625,0.3813450336456299,1.8136663436889648,-0.7886053323745728
1771525740440948200,9.3949482421875,0.648030161857605,2.2809438705444336,-0.5230333805084229
1771525740450951000,9.404950927734374,0.7133693695068359,2.627650260925293,-0.2289249300956726
1771525740460953600,9.41495361328125,0.8881587982177734,2.8301753997802734,-0.0008428692817687988
1771525740470956300,9.424956298828125,1.1791539192199707,3.065185546875,0.21880680322647095
1771525740480958700,9.434958740234375,1.2916488647460938,3.3466310501098633,0.4871872663497925
1771525740490961400,9.44496142578125,1.0363212823867798,3.6980342864990234,0.7521111965179443
1771525740500964000,9.454964111328126,0.4458514451980591,3.9809513092041016,1.07686448097229
1771525740510966800,9.464966796875,-0.2024247646331787,4.062559127807617,1.5027804374694824
1771525740520969500,9.474969482421875,-0.49393928050994873,4.020536422729492,1.56093430519104
1771525740530972200,9.48497216796875,-0.42428135871887207,3.8177452087402344,1.1465214490890503
1771525740540974800,9.494974853515625,0.202559232711792,3.226046562194824,0.5132007002830505
1771525740550977500,9.5049775390625,1.6909844875335693,2.470597267150879,-0.06419578194618225
1771525740560980000,9.51497998046875,3.2079198360443115,1.554443359375,-0.4063061475753784
1771525740570982700,9.524982666015624,3.8383116722106934,0.8295803070068359,-0.4150644540786743
1771525740580985300,9.5349853515625,3.25809907913208,0.4143695831298828,-0.0658126175403595
1771525740590988000,9.544988037109375,1.7839750051498413,0.2611675262451172,0.5504286289215088
1771525740600990700,9.55499072265625,0.17328870296478271,0.02180194854736328,1.0525598526000977
1771525740610993400,9.564993408203126,-1.1509504318237305,-0.11155128479003906,1.305526614189148
1771525740620996000,9.57499609375,-2.1176652908325195,-0.10907554626464844,1.2851853370666504
1771525740630998800,9.584998779296875,-2.423250675201416,-0.27574920654296875,1.216610074043274
1771525740641001500,9.59500146484375,-2.18092679977417,-0.5627641677856445,0.9907442927360535
1771525740651004000,9.60500390625,-1.3429863452911377,-0.9312829971313477,0.4186590313911438
1771525740661006600,9.615006591796876,-0.2546699047088623,-1.2906274795532227,-0.1700718104839325
1771525740671009300,9.62500927734375,0.7604697942733765,-1.732447624206543,-0.4574999213218689
1771525740681012000,9.635011962890625,1.5631264448165894,-2.057469367980957,-0.408949613571167
1771525740691014700,9.6450146484375,1.7875070571899414,-2.3915486335754395,-0.12332236766815186
1771525740701017300,9.655017333984375,1.615342617034912,-2.683138847351074,0.25652000308036804
1771525740711020000,9.66502001953125,1.2174880504608154,-2.9094200134277344,0.532406747341156
1771525740721022700,9.675022705078124,0.755608320236206,-3.0706734657287598,0.6827895641326904
1771525740731025400,9.685025390625,0.33960890769958496,-3.1912331581115723,0.8125582933425903
1771525740741028000,9.695028076171875,-0.1668720245361328,-3.194401264190674,0.7231676578521729
1771525740751030800,9.70503076171875,-0.5824985504150391,-3.1270222663879395,0.4417550563812256
1771525740761033500,9.715033447265625,-0.8108015060424805,-3.06473970413208,0.10866335034370422
1771525740771036400,9.725036376953126,-0.7911136150360107,-2.9163732528686523,-0.19066020846366882
1771525740781039000,9.7350390625,-0.6686915159225464,-2.8404531478881836,-0.2974106967449188
1771525740791041800,9.745041748046875,-0.47871577739715576,-2.5700321197509766,-0.4294552206993103
1771525740801044500,9.75504443359375,-0.4611610174179077,-2.3595852851867676,-0.4213574230670929
1771525740811047200,9.765047119140625,-0.4659343957901001,-2.1520400047302246,-0.3384755551815033
1771525740821049900,9.7750498046875,-0.6381105184555054,-1.8514461517333984,-0.35493871569633484
1771525740831052500,9.785052490234374,-0.7941855192184448,-1.638803482055664,-0.3630554676055908
1771525740841055200,9.79505517578125,-0.8738198280334473,-1.2460460662841797,-0.43214792013168335
1771525740851058000,9.805057861328125,-0.8777892589569092,-1.0795068740844727,-0.39331936836242676
1771525740861060600,9.815060546875,-0.649890661239624,-0.8087625503540039,-0.3276255130767822
1771525740871063300,9.825063232421876,-0.5529136657714844,-0.5200920104980469,-0.17054617404937744
1771525740881066000,9.83506591796875,-0.565047025680542,-0.2655038833618164,0.13875529170036316
1771525740891068700,9.845068603515625,-0.4437636137008667,0.06509017944335938,0.3593592345714569
1771525740901071600,9.855071533203125,-0.4548158645629883,0.31819629669189453,0.6407097578048706
1771525740911074300,9.86507421875,-0.521628737449646,0.6324844360351562,0.7077142596244812
1771525740921077000,9.875076904296876,-0.5540955066680908,0.9363031387329102,0.599648654460907
1771525740931079700,9.88507958984375,-0.7516435980796814,1.306757926940918,0.44061794877052307
1771525740941082400,9.895082275390624,-0.8269466757774353,1.5868473052978516,0.27717694640159607
1771525740951085000,9.9050849609375,-0.7823850512504578,1.791487693786621,0.006689399480819702
1771525740971090400,9.92509033203125,-0.33245110511779785,2.4346017837524414,-0.3436970114707947
1771525740981093000,9.935093017578126,-0.2386852502822876,2.872084617614746,-0.2722627818584442
1771525740991095800,9.945095703125,-0.45178794860839844,3.323972702026367,-0.23703177273273468
1771525741001098500,9.955098388671875,-0.8393976092338562,3.499161720275879,-0.102701336145401
1771525741011101200,9.96510107421875,-0.9624267816543579,3.599703788757324,0.19811350107192993
1771525741021103600,9.975103515625,-0.5917596817016602,3.4831056594848633,0.2885657250881195
1771525741031106300,9.985106201171876,0.6574339866638184,3.198033332824707,0.016821354627609253
1771525741041109000,9.99510888671875,2.490912437438965,2.6721696853637695,-0.5535439252853394
1771525741051111700,10.005111572265625,4.131248474121094,1.9797744750976562,-0.8829817771911621
1771525741061114400,10.0151142578125,4.876580715179443,1.3477458953857422,-0.8987454175949097
1771525741071117000,10.025116943359375,4.506752967834473,0.9700431823730469,-0.6527227163314819
1771525741081119700,10.03511962890625,3.2420825958251953,0.8460960388183594,-0.32645273208618164
1771525741091122400,10.045122314453126,1.4752250909805298,0.967747688293457,-0.05029040575027466
1771525741101124900,10.055124755859374,-0.13382983207702637,0.9359779357910156,0.25603988766670227
1771525741111127600,10.06512744140625,-1.0725795030593872,0.9253864288330078,0.3382135331630707
1771525741121130200,10.075130126953125,-1.103263258934021,0.836395263671875,0.2104528248310089
1771525741141135600,10.095135498046876,-0.06553447246551514,0.1410198211669922,-0.49164843559265137
1771525741151138300,10.10513818359375,0.4306858777999878,-0.35181427001953125,-0.8567240238189697
1771525741161141000,10.11514111328125,0.5219525098800659,-0.8818473815917969,-1.0209708213806152
1771525741171143700,10.125143798828125,0.6149896383285522,-1.2531375885009766,-0.9275830388069153
1771525741181146000,10.13514599609375,0.6580487489700317,-1.638218879699707,-0.6110748052597046
1771525741191148800,10.145148681640626,0.5042576789855957,-2.1185107231140137,-0.29118770360946655
1771525741201151500,10.1551513671875,0.10036361217498779,-2.383108615875244,-0.03319093585014343
1771525741211154200,10.165154296875,-0.3218824863433838,-2.594367027282715,0.11597169935703278
1771525741221156900,10.175156982421875,-0.506726861000061,-2.8045034408569336,0.2432216852903366
1771525741231159600,10.18515966796875,-0.43437659740448,-2.956470489501953,0.26814764738082886
1771525741241162200,10.195162353515625,-0.30238401889801025,-3.0655322074890137,0.23941384255886078
1771525741251165000,10.2051650390625,-0.1657555103302002,-3.103691577911377,0.17725929617881775
1771525741261167600,10.215167724609374,-0.07200098037719727,-3.1237425804138184,0.019878476858139038
1771525741271170000,10.225170166015625,-0.13024663925170898,-3.1401963233947754,0.10176917910575867
1771525741281172700,10.2351728515625,-0.2675670385360718,-3.1580519676208496,0.16049724817276
1771525741291175400,10.245175537109375,-0.662246823310852,-3.1244053840637207,0.09670388698577881
1771525741301178000,10.25517822265625,-1.0124878883361816,-2.96201753616333,-0.07921317219734192
1771525741311180800,10.265180908203124,-1.1197338104248047,-2.7806692123413086,-0.16151659190654755
1771525741321183500,10.27518359375,-1.1758065223693848,-2.5516929626464844,-0.33305612206459045
1771525741331186200,10.285186279296875,-1.253270149230957,-2.2129178047180176,-0.5566270351409912
1771525741341188900,10.29518896484375,-1.2010406255722046,-1.8597612380981445,-0.7659662365913391
1771525741351191300,10.30519140625,-0.9100855588912964,-1.3154048919677734,-0.9047163724899292
1771525741361194000,10.315194091796876,-0.4123619794845581,-0.8195791244506836,-1.015792965888977
1771525741371196700,10.32519677734375,0.09595537185668945,-0.31104373931884766,-1.0809576511383057
1771525741381199400,10.335199462890625,0.3968576192855835,0.11804389953613281,-0.9457244873046875
1771525741391202000,10.3452021484375,0.3873422145843506,0.5964622497558594,-0.7896243333816528
1771525741401204700,10.355204833984375,0.214402437210083,1.1244783401489258,-0.463654488325119
1771525741411207400,10.36520751953125,-0.07482993602752686,1.7222623825073242,-0.16866639256477356
1771525741421210000,10.375210205078124,-0.07453513145446777,2.194826126098633,-0.10031890869140625
1771525741431212500,10.385212646484375,0.08874273300170898,2.566683769226074,-0.04874339699745178
1771525741441215200,10.39521533203125,0.5125188827514648,2.8911027908325195,-0.18762680888175964
1771525741451218000,10.405218017578125,0.9970630407333374,3.0533246994018555,-0.18423286080360413
1771525741461220600,10.415220703125,1.6404218673706055,3.053274154663086,-0.15433722734451294
1771525741471223300,10.425223388671874,2.0511422157287598,3.033663749694824,-0.12670797109603882
1771525741481226000,10.43522607421875,1.6952016353607178,3.2372608184814453,0.021917402744293213
1771525741491228700,10.445228759765625,0.390926718711853,3.3200063705444336,0.31096750497817993
1771525741501231400,10.4552314453125,-1.1769073009490967,3.517979621887207,0.800040602684021
1771525741511233800,10.46523388671875,-2.339601516723633,3.5648727416992188,1.2423908710479736
1771525741521236500,10.475236572265626,-2.6603147983551025,3.529571533203125,1.0277912616729736
1771525741531239200,10.4852392578125,-1.451973795890808,3.155137062072754,0.1566827893257141
1771525741541241900,10.495241943359375,0.9101934432983398,2.498575210571289,-0.801480770111084
1771525741551244500,10.50524462890625,3.2672035694122314,1.7392444610595703,-1.0839781761169434
1771525741561247200,10.515247314453125,4.353901386260986,1.0514116287231445,-0.776881217956543
1771525741571250000,10.52525,3.8569860458374023,0.7158012390136719,0.1358749270439148
1771525741581252600,10.535252685546874,2.3282861709594727,0.5173425674438477,1.2245084047317505
1771525741591255000,10.545255126953125,0.7749098539352417,0.5235481262207031,1.7361208200454712
1771525741601257700,10.5552578125,-0.4281306266784668,0.5151205062866211,1.955869436264038
1771525741611260400,10.565260498046875,-1.0213046073913574,0.5315923690795898,1.9271275997161865
1771525741621263000,10.57526318359375,-0.9569205045700073,0.3589639663696289,1.442455768585205
1771525741641268500,10.5952685546875,0.19449138641357422,-0.5226554870605469,0.0004677772521972656
1771525741651271200,10.605271240234375,0.6989936828613281,-1.0749320983886719,-0.2916100025177002
1771525741661273900,10.61527392578125,0.9978270530700684,-1.4163475036621094,-0.43632540106773376
1771525741671276300,10.6252763671875,0.9160361289978027,-1.9109172821044922,-0.4737846255302429
1771525741681279000,10.635279052734376,0.7308452129364014,-2.0901827812194824,-0.27864664793014526
1771525741691281700,10.64528173828125,0.6244831085205078,-2.4614691734313965,-0.10352266579866409
1771525741701284400,10.655284423828125,0.09315872192382812,-2.5414915084838867,-0.03399118036031723
1771525741711287000,10.665287109375,-0.4730536937713623,-2.726813316345215,0.032539889216423035
1771525741731292400,10.68529248046875,-0.7293601036071777,-2.973794460296631,0.05318644642829895
1771525741741295000,10.695295166015624,-0.6405972242355347,-3.0274863243103027,0.023060709238052368
1771525741751297500,10.705297607421874,-0.7825332880020142,-3.0783610343933105,0.0750245600938797
1771525741761300200,10.71530029296875,-0.9861288070678711,-3.015685558319092,0.05574098229408264
1771525741771303000,10.725302978515625,-1.0606626272201538,-2.8718299865722656,-0.11372060328722
1771525741781305600,10.7353056640625,-0.8318232297897339,-2.679880142211914,-0.08239278197288513
1771525741791308300,10.745308349609376,-0.6185703277587891,-2.4547510147094727,0.05531279742717743
1771525741801311000,10.75531103515625,-0.6003360748291016,-2.2256884574890137,0.2907198667526245
1771525741811313700,10.765313720703125,-0.6852076053619385,-1.9976763725280762,0.37796610593795776
1771525741821316400,10.77531640625,-0.7977062463760376,-1.7226581573486328,0.2891259491443634
1771525741831318800,10.78531884765625,-0.8048526048660278,-1.4101018905639648,0.22521625459194183
1771525741841321500,10.795321533203126,-0.42370104789733887,-1.1225175857543945,0.15189246833324432
1771525741851324200,10.80532421875,-0.013622045516967773,-0.7844715118408203,0.07184767723083496
1771525741861326800,10.815326904296874,0.14011573791503906,-0.4584522247314453,-0.015644386410713196
1771525741871329500,10.82532958984375,0.03688454627990723,-0.20139217376708984,0.0857633501291275
1771525741881332200,10.835332275390625,-0.04320693016052246,0.025658607482910156,0.14810943603515625
1771525741891335000,10.8453349609375,-0.16326045989990234,0.30896949768066406,0.23973539471626282
1771525741901337600,10.855337646484376,-0.26388823986053467,0.6155452728271484,0.38198527693748474
1771525741911340000,10.865340087890624,-0.18546080589294434,0.9649686813354492,0.2942471206188202
1771525741921342700,10.8753427734375,0.16273093223571777,1.361800193786621,0.2533212900161743
1771525741931345400,10.885345458984375,0.5753927230834961,1.8917360305786133,0.21987396478652954
1771525741941348000,10.89534814453125,0.7117465734481812,1.9435129165649414,-0.31746047735214233
1771525741951350800,10.905350830078126,0.9091521501541138,2.364272117614746,-0.05461156368255615
1771525741961353500,10.915353515625,1.249932050704956,2.584451675415039,-0.0694890022277832
1771525741971356200,10.925356201171875,1.4667621850967407,2.8661270141601562,-0.0013789534568786621
1771525741981358800,10.93535888671875,1.1580055952072144,3.2512569427490234,-0.010561823844909668
1771525741991361300,10.945361328125,0.24461066722869873,3.6247406005859375,0.11074522137641907
1771525742001364000,10.955364013671876,-1.0338540077209473,3.935089111328125,0.3977780342102051
1771525742021369300,10.975369384765624,-2.0612144470214844,3.745697021484375,0.11969667673110962
1771525742031372000,10.9853720703125,-0.8623987436294556,3.546419143676758,-0.14061066508293152
1771525742041374700,10.995374755859375,1.2892528772354126,2.9025707244873047,-0.4421759247779846
1771525742051377400,11.00537744140625,3.3433375358581543,2.032075881958008,-0.6050641536712646
1771525742061380000,11.015380126953126,4.219653606414795,1.3436613082885742,-0.5369057655334473
1771525742071382500,11.025382568359374,3.7468113899230957,0.9783706665039062,0.10913532972335815
1771525742081385200,11.03538525390625,2.363945960998535,0.8543758392333984,0.5874017477035522
1771525742091388000,11.045387939453125,0.9233224391937256,0.7195158004760742,0.6013346910476685
1771525742101390600,11.055390625,-0.1577451229095459,0.7042312622070312,0.5287659168243408
1771525742111393300,11.065393310546876,-0.7814954519271851,0.5564584732055664,0.40815505385398865
1771525742121396000,11.07539599609375,-0.5086556673049927,0.3636150360107422,0.053827136754989624
1771525742131398700,11.085398681640624,0.2717165946960449,0.020172119140625,-0.3604097068309784
1771525742141401300,11.0954013671875,0.8615713119506836,-0.3023681640625,-0.612304151058197
1771525742151403800,11.10540380859375,1.2933435440063477,-0.5856409072875977,-0.670762300491333
1771525742161406500,11.115406494140625,1.5509545803070068,-0.8590631484985352,-0.660211980342865
1771525742171409200,11.1254091796875,1.4703612327575684,-1.1807069778442383,-0.551010012626648
1771525742181411800,11.135411865234374,1.0139079093933105,-1.4979705810546875,-0.36064445972442627
1771525742191414500,11.14541455078125,0.44294071197509766,-1.8629426956176758,-0.15472427010536194
1771525742201417200,11.155417236328125,-0.0667412281036377,-2.1750245094299316,-0.03574484586715698
1771525742211420000,11.165419921875,-0.5536757707595825,-2.353166103363037,-0.0022941529750823975
1771525742231425000,11.185425048828124,-0.711467981338501,-2.6369590759277344,-0.3544684052467346
1771525742241427700,11.195427734375,-0.4690079689025879,-2.7154340744018555,-0.286307692527771
1771525742251430400,11.205430419921875,-0.46462368965148926,-2.666274070739746,-0.246534064412117
1771525742261433000,11.21543310546875,-0.5903137922286987,-2.5846710205078125,-0.26486819982528687
1771525742271435800,11.225435791015625,-0.6263530254364014,-2.5996170043945312,-0.21146026253700256
1771525742281438500,11.2354384765625,-0.4681175947189331,-2.534158706665039,-0.4142131209373474
1771525742291441200,11.245441162109374,-0.4253833293914795,-2.4173293113708496,-0.6453357934951782
1771525742301443800,11.25544384765625,-0.7030845880508423,-2.296938419342041,-0.6872171759605408
1771525742311446300,11.2654462890625,-1.064868450164795,-2.1865906715393066,-0.6198921203613281
1771525742321449000,11.275448974609375,-1.1794852018356323,-2.066439151763916,-0.6428296566009521
1771525742331451600,11.28545166015625,-0.9889414310455322,-1.8460884094238281,-0.5452085733413696
1771525742341454300,11.295454345703124,-0.8255933523178101,-1.6554746627807617,-0.23006656765937805
1771525742351457000,11.30545703125,-0.6479748487472534,-1.2887821197509766,-0.3471467196941376
1771525742361459700,11.315459716796875,-0.3260692358016968,-0.9519681930541992,-0.47254711389541626
1771525742371462400,11.32546240234375,-0.026084423065185547,-0.5688142776489258,-0.5681234002113342
1771525742391467500,11.345467529296876,0.29865431785583496,0.4934120178222656,-0.6783865690231323
1771525742401470200,11.35547021484375,0.33811283111572266,1.058598518371582,-0.7277646064758301
1771525742411473000,11.365472900390625,0.6608532667160034,1.4751062393188477,-0.6632271409034729
1771525742421475600,11.3754755859375,0.9893379211425781,1.7957963943481445,-0.5714867115020752
1771525742431478300,11.385478271484375,1.3928781747817993,2.092021942138672,-0.48588475584983826
1771525742441481000,11.39548095703125,1.4114961624145508,2.272378921508789,-0.2534523606300354
1771525742451483600,11.405483642578124,1.2132177352905273,2.332343101501465,-0.025377631187438965
1771525742461486300,11.415486328125,0.9151266813278198,2.411322593688965,-0.19351600110530853
1771525742471489000,11.425489013671875,0.4586571455001831,2.500123977661133,-0.18669630587100983
1771525742481491500,11.435491455078125,-0.3878812789916992,2.7044057846069336,-0.06475374102592468
1771525742491494100,11.445494140625,-1.2816191911697388,2.953465461730957,0.26752421259880066
1771525742501496800,11.455496826171874,-1.9367040395736694,3.157294273376465,0.6077871322631836
1771525742511499500,11.46549951171875,-1.7310885190963745,3.2973098754882812,0.8167101144790649
1771525742521502200,11.475502197265625,-0.5243836641311646,3.1818466186523438,0.696751594543457
1771525742531505000,11.4855048828125,1.2612042427062988,2.762019157409668,0.4961235821247101
1771525742541507600,11.495507568359375,2.842958450317383,2.1368541717529297,0.16760578751564026
1771525742551510300,11.50551025390625,3.6386256217956543,1.5056848526000977,0.07407256960868835
1771525742561512700,11.5155126953125,3.2504758834838867,1.087982177734375,0.3680267930030823
1771525742571515400,11.525515380859375,1.8632984161376953,0.7741127014160156,0.7835352420806885
1771525742581518000,11.53551806640625,0.1292351484298706,0.6370525360107422,1.066257119178772
1771525742591520800,11.545520751953125,-1.2598071098327637,0.5828037261962891,1.2659900188446045
1771525742601523500,11.5555234375,-1.9192876815795898,0.44985198974609375,1.224456548690796
1771525742611526100,11.565526123046874,-1.9871282577514648,0.31067657470703125,0.8785030841827393
1771525742621528800,11.57552880859375,-1.4769847393035889,-0.016251564025878906,0.4480493664741516
1771525742631531500,11.585531494140625,-0.532591700553894,-0.3783760070800781,0.11747395992279053
1771525742641534000,11.595533935546875,0.2826828956604004,-0.7384576797485352,-0.1034054160118103
1771525742651536600,11.60553662109375,0.872732400894165,-1.0972671508789062,-0.06956636905670166
1771525742661539300,11.615539306640626,1.2575857639312744,-1.4321784973144531,0.20420271158218384
1771525742671542000,11.6255419921875,1.2300364971160889,-1.6963119506835938,0.5205165147781372
1771525742681544700,11.635544677734375,0.9772233963012695,-1.947366714477539,0.6345720291137695
1771525742691547400,11.64554736328125,0.5498263835906982,-2.1515097618103027,0.5249672532081604
1771525742701549800,11.6555498046875,0.10835599899291992,-2.3179030418395996,0.493521124124527
1771525742711552500,11.665552490234376,-0.027435779571533203,-2.5946197509765625,0.29524028301239014
1771525742721555200,11.67555517578125,-0.1620173454284668,-2.690511703491211,0.2401416003704071
1771525742731557600,11.6855576171875,-0.3275413513183594,-2.864304542541504,0.16064506769180298
1771525742741560300,11.695560302734375,-0.47629237174987793,-2.9676918983459473,0.05637285113334656
1771525742751563000,11.70556298828125,-0.4850344657897949,-3.0102028846740723,-0.05262628197669983
1771525742761565400,11.7155654296875,-0.6790978908538818,-2.977565288543701,-0.09070318937301636
1771525742771568000,11.725568115234376,-0.8985836505889893,-2.9408679008483887,-0.07188239693641663
1771525742781570800,11.73557080078125,-0.9154863357543945,-2.8854494094848633,-0.23510944843292236
1771525742791573200,11.7455732421875,-0.8923759460449219,-2.7111101150512695,-0.2554416060447693
1771525742801576000,11.755575927734375,-1.0594890117645264,-2.4703845977783203,-0.2019888013601303
1771525742811578600,11.76557861328125,-1.193520188331604,-2.1821141242980957,-0.14221340417861938
1771525742821581000,11.7755810546875,-1.1863335371017456,-1.8986072540283203,-0.07993626594543457
1771525742831583700,11.785583740234374,-0.9325917959213257,-1.6152915954589844,0.03399476408958435
1771525742841586400,11.79558642578125,-0.6781567335128784,-1.2183713912963867,0.058361202478408813
1771525742851588900,11.8055888671875,-0.24560046195983887,-0.7322244644165039,0.023103982210159302
1771525742861591600,11.815591552734375,0.0312497615814209,-0.2193603515625,0.056800633668899536
1771525742871594200,11.82559423828125,0.2998802661895752,0.2535543441772461,0.06788656115531921
1771525742881596700,11.8355966796875,0.41125011444091797,0.7203235626220703,0.13206985592842102
1771525742891599400,11.845599365234374,0.5406146049499512,1.143136978149414,0.19253617525100708
1771525742901602000,11.85560205078125,0.6682784557342529,1.531733512878418,0.1877489686012268
1771525742911604500,11.8656044921875,0.9573969841003418,1.8335304260253906,0.15044671297073364
1771525742921607200,11.875607177734375,1.152104139328003,2.1246252059936523,0.19559824466705322
1771525742931609900,11.88560986328125,1.1272473335266113,2.534242630004883,0.23279321193695068
1771525742941612300,11.8956123046875,1.1916354894638062,2.7903966903686523,0.3126349449157715
1771525742951615000,11.905614990234374,1.1513698101043701,3.0220422744750977,0.41954320669174194
1771525742961617700,11.91561767578125,0.7308589220046997,3.3245038986206055,0.4919937252998352
1771525742971620400,11.925620361328125,-0.10398209095001221,3.731257438659668,0.6898872256278992
1771525742981623000,11.935623046875,-1.0595877170562744,3.893988609313965,0.9332736134529114
1771525742991625700,11.945625732421876,-1.7642757892608643,4.062680244445801,0.9283091425895691
1771525743001628200,11.955628173828124,-1.7892224788665771,3.922898292541504,0.644839346408844
1771525743011630800,11.965630859375,-1.0149869918823242,3.6384925842285156,0.12515676021575928
1771525743021633500,11.975633544921875,0.5185939073562622,3.0134897232055664,-0.24169421195983887
1771525743031636200,11.98563623046875,2.256093978881836,2.176116943359375,-0.5632485747337341
1771525743041639000,11.995638916015626,3.354165554046631,1.4494314193725586,-0.7005704641342163
1771525743051641600,12.0056416015625,3.1620984077453613,0.960601806640625,-0.18537595868110657
1771525743061644300,12.015644287109374,1.9281288385391235,0.5850687026977539,0.4928596019744873
1771525743071647000,12.02564697265625,0.6970357894897461,0.38588523864746094,0.4848991632461548
1771525743081649400,12.0356494140625,-0.14005577564239502,0.2345256805419922,0.39829209446907043
1771525743091652000,12.045652099609375,-0.7217733860015869,0.13637161254882812,0.32572293281555176
1771525743101654800,12.05565478515625,-0.7680624723434448,-0.045897483825683594,0.05087009072303772
1771525743111657500,12.065657470703124,-0.1167372465133667,-0.27845191955566406,-0.5473347902297974
1771525743121660200,12.07566015625,0.533236026763916,-0.5235233306884766,-1.0282132625579834
1771525743131662800,12.085662841796875,0.9271697998046875,-0.8436756134033203,-1.191894769668579
1771525743141665500,12.09566552734375,1.1447107791900635,-1.162867546081543,-1.1549772024154663
1771525743151668200,12.105668212890626,1.143463373184204,-1.495530128479004,-1.0706032514572144
1771525743161670700,12.115670654296874,0.8807239532470703,-1.8798332214355469,-0.9143219590187073
1771525743171673300,12.12567333984375,0.4137139320373535,-2.220057964324951,-0.39665424823760986
1771525743181676000,12.135676025390625,-0.010967731475830078,-2.5207271575927734,-0.07284432649612427
1771525743191678700,12.1456787109375,-0.23426461219787598,-2.753643035888672,0.09206229448318481
1771525743201681400,12.155681396484376,-0.22513127326965332,-2.9245052337646484,0.25429725646972656
1771525743211684000,12.16568408203125,-0.11023211479187012,-2.9529943466186523,0.19089633226394653
1771525743221686800,12.175686767578124,-0.14084434509277344,-2.9737067222595215,0.1553034782409668
1771525743231689500,12.185689453125,-0.20840978622436523,-2.9671454429626465,-0.025697141885757446
1771525743241692000,12.19569189453125,-0.40548455715179443,-2.899394989013672,-0.2594335079193115
1771525743251694600,12.205694580078125,-0.600340723991394,-2.865542411804199,-0.39458388090133667
1771525743261697300,12.215697265625,-0.7256791591644287,-2.7987308502197266,-0.4360218048095703
1771525743271700000,12.225699951171874,-0.9743351936340332,-2.693934440612793,-0.3925882875919342
1771525743281702700,12.23570263671875,-1.0754976272583008,-2.522233009338379,-0.43083903193473816
1771525743291705300,12.245705322265625,-1.110572338104248,-2.360278606414795,-0.3731861412525177
1771525743301708000,12.2557080078125,-1.1035890579223633,-2.126857280731201,-0.43012264370918274
1771525743311710700,12.265710693359376,-1.068394422531128,-1.8366031646728516,-0.5010268688201904
1771525743321713200,12.275713134765626,-0.9670795202255249,-1.5039901733398438,-0.5417049527168274
1771525743331715800,12.2857158203125,-0.681242823600769,-1.0334339141845703,-0.6711882948875427
1771525743341718500,12.295718505859375,-0.23753750324249268,-0.6502799987792969,-0.7370318174362183
1771525743351721200,12.30572119140625,0.1516420841217041,-0.1638631820678711,-0.7682751417160034
1771525743361724000,12.315723876953125,0.3671836853027344,0.43513011932373047,-0.7851586937904358
1771525743371726600,12.3257265625,0.5031454563140869,0.9940423965454102,-0.8224420547485352
1771525743381729300,12.335729248046874,0.6081032752990723,1.4412059783935547,-0.7605211138725281
1771525743391732000,12.34573193359375,0.6630715131759644,1.8246726989746094,-0.6903229355812073
1771525743401734400,12.355734375,0.7384383678436279,2.259547233581543,-0.5405942797660828
1771525743411737000,12.365737060546875,0.7175159454345703,2.6505861282348633,-0.27336400747299194
1771525743421739800,12.37573974609375,0.8718467950820923,2.854702949523926,0.09420129656791687
1771525743431742500,12.385742431640624,1.0109474658966064,3.015382766723633,0.305497407913208
1771525743441745200,12.3957451171875,1.0847110748291016,3.0366992950439453,0.33327382802963257
1771525743451747800,12.405747802734375,0.803130030632019,3.066866874694824,0.33051764965057373
1771525743461750500,12.41575048828125,-0.0018848180770874023,3.1541013717651367,0.385489821434021
1771525743471753200,12.425753173828125,-1.0401519536972046,3.2089109420776367,0.5587639212608337
1771525743481755600,12.435755615234376,-1.836364984512329,3.246973991394043,0.6707754731178284
1771525743491758300,12.44575830078125,-1.8150241374969482,3.231156349182129,0.571980357170105
1771525743501761000,12.455760986328125,-0.5981868505477905,3.060850143432617,0.21534055471420288
1771525743511763700,12.465763671875,1.0332735776901245,2.644106864929199,-0.15021294355392456
1771525743521766400,12.475766357421875,2.3702950477600098,2.0566492080688477,-0.3347008228302002
1771525743531769000,12.48576904296875,3.1638031005859375,1.3643264770507812,-0.3477562963962555
1771525743541771800,12.495771728515624,2.932128429412842,0.886566162109375,-0.09062248468399048
1771525743551774500,12.5057744140625,1.7815717458724976,0.6228780746459961,0.39792829751968384
1771525743561777000,12.51577685546875,0.22896695137023926,0.44455814361572266,0.8792716264724731
1771525743571779600,12.525779541015625,-1.0747255086898804,0.36717796325683594,1.2039843797683716
1771525743581782300,12.5357822265625,-1.818235993385315,0.2868061065673828,1.2382712364196777
1771525743591785000,12.545784912109376,-1.7439219951629639,0.1469583511352539,0.9297745227813721
1771525743601787600,12.55578759765625,-1.032881259918213,-0.18120193481445312,0.40123042464256287
1771525743611790300,12.565790283203125,-0.02499103546142578,-0.4972114562988281,-0.15570485591888428
1771525743621793000,12.57579296875,0.6642448902130127,-0.8690032958984375,-0.33621394634246826
1771525743631795700,12.585795654296875,0.9378175735473633,-1.2635498046875,-0.27133429050445557
1771525743641798100,12.595798095703126,1.0216655731201172,-1.5853872299194336,-0.19208067655563354
1771525743651800800,12.60580078125,0.9402029514312744,-1.9111719131469727,-0.13689234852790833
1771525743661803500,12.615803466796875,0.5984394550323486,-2.188478946685791,0.10197898745536804
1771525743671806200,12.62580615234375,0.3545339107513428,-2.469933032989502,0.3848424553871155
1771525743681809000,12.635808837890625,0.36907005310058594,-2.694369316101074,0.5201312899589539
1771525743691811600,12.6458115234375,0.3684065341949463,-2.863091468811035,0.5973638296127319
1771525743701814300,12.655814208984374,0.23171353340148926,-2.9771523475646973,0.5881433486938477
1771525743711817000,12.66581689453125,0.06072688102722168,-3.060899257659912,0.4783290922641754
1771525743721819600,12.675819580078125,-0.2796480655670166,-3.118842601776123,0.3545882999897003
1771525743731822000,12.685822021484375,-0.5261169672012329,-3.049464702606201,0.11873054504394531
1771525743741824800,12.69582470703125,-0.7465454339981079,-3.0390725135803223,0.09892648458480835
1771525743751827500,12.705827392578126,-0.9341994524002075,-2.9148755073547363,0.008744955062866211
1771525743761830100,12.715830078125,-1.0290520191192627,-2.7769107818603516,-0.10999986529350281
1771525743771832800,12.725832763671875,-1.0557291507720947,-2.625033378601074,-0.2635495662689209
1771525743781835500,12.73583544921875,-1.216383934020996,-2.3777003288269043,-0.391660213470459
1771525743791838200,12.745838134765625,-1.3793971538543701,-2.0728249549865723,-0.4847511649131775
1771525743801841000,12.7558408203125,-1.4366185665130615,-1.7627439498901367,-0.44246286153793335
1771525743811843300,12.76584326171875,-1.2955818176269531,-1.347686767578125,-0.2538899779319763
1771525743821846000,12.775845947265625,-1.1485729217529297,-0.8039140701293945,-0.28169167041778564
1771525743831848700,12.7858486328125,-0.677620530128479,-0.3366727828979492,-0.4409772455692291
1771525743841851400,12.795851318359375,-0.05269217491149902,0.09189414978027344,-0.37535184621810913
1771525743851854000,12.80585400390625,0.4605579376220703,0.48621082305908203,-0.2482231855392456
1771525743871859500,12.825859375,1.0867635011672974,1.1271800994873047,0.23582816123962402
1771525743881862100,12.835862060546875,1.2156966924667358,1.4645051956176758,0.2015751600265503
1771525743891864600,12.845864501953125,1.358008623123169,1.776209831237793,0.24234703183174133
1771525743901867300,12.8558671875,1.2344162464141846,1.9948854446411133,0.5179954767227173
1771525743911870000,12.865869873046876,0.9177128076553345,2.2744522094726562,0.5945521593093872
1771525743931875300,12.885875244140625,0.9899952411651611,2.623141288757324,0.4130414128303528
1771525743941878000,12.8958779296875,1.4399775266647339,2.7403345108032227,0.4037492871284485
1771525743951880700,12.905880615234375,1.877711534500122,2.8854551315307617,0.3162154257297516
1771525743961883400,12.91588330078125,1.826974868774414,2.995232582092285,0.3182760179042816
1771525743971885800,12.9258857421875,1.3236271142959595,3.0886430740356445,0.2597140967845917
1771525743981888500,12.935888427734374,0.44283318519592285,3.080167770385742,0.149105966091156
1771525743991891200,12.94589111328125,-0.5443557500839233,3.038174629211426,-0.007380813360214233
1771525744001894000,12.955893798828125,-1.0987498760223389,2.8880510330200195,-0.2966844141483307
1771525744011896600,12.965896484375,-0.9404752850532532,2.630955696105957,-0.4405776858329773
1771525744021899300,12.975899169921876,-0.2288883924484253,2.2241640090942383,-0.49689751863479614
1771525744031902000,12.98590185546875,0.638191819190979,1.7055768966674805,-0.5800819396972656
