time,seconds_elapsed,z,y,x
1771525731238463200,0.192463134765625,0.8343793153762817,9.844358444213867,-0.019153613597154617
1771525731258470000,0.212469970703125,0.7194576263427734,9.858723640441895,-0.06703764945268631
1771525731278478000,0.23247802734375,0.767341673374176,9.79647445678711,0.11971008777618408
1771525731298487000,0.252487060546875,0.7481880187988281,9.77253246307373,0.15801730751991272
1771525731348504800,0.3025048828125,0.9588778018951416,9.791686058044434,0.22505496442317963
1771525731388515600,0.342515625,1.0450690984725952,9.604938507080078,0.13407529890537262
1771525731398518300,0.352518310546875,1.0450690984725952,9.604938507080078,0.08619125932455063
1771525731408521000,0.36252099609375,0.9014169573783875,9.595361709594727,0.1628057211637497
1771525731418523600,0.372523681640625,0.8056488633155823,9.633668899536133,0.22505496442317963
1771525731428526300,0.3825263671875,0.7577648162841797,9.691129684448242,0.20111294090747833
1771525731438529000,0.392529052734375,0.8008604645729065,9.715071678161621,0.22505496442317963
1771525731448531700,0.40253173828125,0.8583213090896606,9.753378868103027,0.21547815203666687
1771525731458534400,0.412534423828125,0.8870517015457153,9.762955665588379,0.11013327538967133
1771525731468537300,0.422537353515625,0.9397241473197937,9.820416450500488,0.07661445438861847
1771525731478540000,0.4325400390625,1.0019733905792236,9.844358444213867,0.1867477297782898
1771525731488542700,0.442542724609375,1.0115501880645752,9.844358444213867,0.31603461503982544
1771525731498545400,0.45254541015625,0.973242998123169,9.877877235412598,0.33997663855552673
1771525731508548000,0.462548095703125,1.016338586807251,9.911396026611328,0.3064578175544739
1771525731518550800,0.47255078125,0.9923965930938721,9.911396026611328,0.272938996553421
1771525731528553500,0.482553466796875,0.9445125460624695,9.892242431640625,0.3256114423274994
1771525731538556200,0.49255615234375,0.910993754863739,9.901819229125977,0.2968810200691223
1771525731548558800,0.502558837890625,0.8439561128616333,9.959280967712402,0.2968810200691223
1771525731558561300,0.512561279296875,0.9014169573783875,9.906607627868652,0.33039984107017517
1771525731568564000,0.52256396484375,0.9493009448051453,9.906607627868652,0.3208230137825012
1771525731578566700,0.532566650390625,0.973242998123169,9.925761222839355,0.16759411990642548
1771525731588569300,0.5425693359375,0.9780313968658447,9.906607627868652,-0.08619125932455063
1771525731598572000,0.552572021484375,1.1025298833847046,9.930550575256348,-0.3016694188117981
1771525731608574700,0.56257470703125,1.1743559837341309,9.964069366455078,-0.2777273952960968
1771525731618577400,0.572577392578125,1.1025298833847046,9.77253246307373,-0.12449848651885986
1771525731628580000,0.582580078125,0.9636662006378174,9.839570045471191,-0.07661445438861847
1771525731638582500,0.59258251953125,0.8774749040603638,9.715071678161621,0.11971008777618408
1771525731648585200,0.602585205078125,0.6715735793113708,9.758167266845703,0.07661445438861847
1771525731658588000,0.612587890625,0.5710170865058899,9.758167266845703,0.028730420395731926
1771525731668590600,0.622590576171875,0.5183446407318115,9.719860076904297,0.11013327538967133
1771525731678593300,0.63259326171875,0.46088382601737976,9.729436874389648,0.19153612852096558
1771525731688596000,0.642595947265625,0.5039794445037842,9.729436874389648,0.2346317619085312
1771525731698598700,0.6525986328125,0.6955155730247498,9.753378868103027,0.12928688526153564
1771525731708601300,0.662601318359375,0.8631097078323364,9.791686058044434,0.10055647045373917
1771525731718603800,0.672603759765625,0.9540894031524658,9.734225273132324,0.17717093229293823
1771525731728606500,0.6826064453125,1.0019733905792236,9.724648475646973,0.11013327538967133
1771525731738609200,0.692609130859375,0.9397241473197937,9.791686058044434,0.11013327538967133
1771525731748611800,0.70261181640625,0.9014169573783875,9.700706481933594,0.3256114423274994
1771525731758614500,0.712614501953125,0.7912836670875549,9.628880500793457,0.5171475410461426
1771525731768617200,0.7226171875,0.7194576263427734,9.700706481933594,0.4213795065879822
1771525731778620000,0.732619873046875,0.7960720658302307,9.719860076904297,-0.004788403399288654
1771525731788622600,0.74262255859375,0.829590916633606,9.849146842956543,-0.2777273952960968
1771525731798625300,0.752625244140625,0.9349357485771179,9.9401273727417,-0.3064578175544739
1771525731808628000,0.7626279296875,1.0785878896713257,9.801262855529785,-0.090979665517807
1771525731818630700,0.772630615234375,1.035492181777954,9.79647445678711,0.14844051003456116
1771525731828633300,0.78263330078125,1.0881646871566772,9.734225273132324,0.35434186458587646
1771525731838636000,0.792635986328125,1.2270283699035645,9.791686058044434,0.2537853717803955
1771525731848638700,0.802638671875,1.2844891548156738,9.935338973999023,0.028730420395731926
1771525731858641700,0.8126416015625,1.2222399711608887,9.97364616394043,0.17717093229293823
1771525731868644400,0.822644287109375,1.116895079612732,9.911396026611328,0.2537853717803955
1771525731878647000,0.83264697265625,1.0690110921859741,9.978434562683105,0.11013327538967133
1771525731888649700,0.842649658203125,1.0642226934432983,9.988011360168457,0.028730420395731926
1771525731898652400,0.85265234375,0.9923965930938721,9.954492568969727,0.14365209639072418
1771525731908655000,0.862655029296875,1.0019733905792236,9.839570045471191,0.14844051003456116
1771525731918657800,0.87265771484375,0.910993754863739,9.815628051757812,0.181959331035614
1771525731928660500,0.882660400390625,0.8487445116043091,9.777320861816406,0.28730419278144836
1771525731938663200,0.8926630859375,0.8583213090896606,9.762955665588379,0.28730419278144836
1771525731948665900,0.902665771484375,0.9205705523490906,9.767744064331055,0.2968810200691223
1771525731958668500,0.91266845703125,0.8966285586357117,9.729436874389648,0.4357447028160095
1771525731968671200,0.922671142578125,0.9062053561210632,9.729436874389648,0.44532153010368347
1771525731978674200,0.932674072265625,1.0307037830352783,9.748590469360352,0.26815059781074524
1771525731988676900,0.9426767578125,1.092953085899353,9.791686058044434,0.15322890877723694
1771525731998679600,0.952679443359375,1.1121066808700562,9.786897659301758,-0.05746084079146385
1771525732008682200,0.96268212890625,1.1791443824768066,9.806051254272461,-0.3256114423274994
1771525732018685000,0.972684814453125,1.1456254720687866,9.839570045471191,-0.3495534360408783
1771525732028687600,0.9826875,1.0115501880645752,9.753378868103027,-0.2825157940387726
1771525732038690300,0.992690185546875,0.9157821536064148,9.79647445678711,-0.2059013396501541
1771525732048693000,1.00269287109375,0.872686505317688,9.758167266845703,-0.009576806798577309
1771525732058695700,1.01269580078125,0.7721300721168518,9.695918083190918,0.2537853717803955
1771525732068698400,1.022698486328125,0.7433996200561523,9.686341285705566,0.2059013396501541
1771525732078701000,1.032701171875,0.8678981065750122,9.748590469360352,0.09576806426048279
1771525732088703700,1.042703857421875,0.9301473498344421,9.815628051757812,0.11013327538967133
1771525732098706400,1.05270654296875,0.9636662006378174,9.834781646728516,0.11971008777618408
1771525732108709400,1.06270947265625,0.9828197956085205,9.825204849243164,0.09576806426048279
1771525732118712000,1.072712158203125,0.9636662006378174,9.834781646728516,0.1149216815829277
1771525732128714800,1.08271484375,0.9397241473197937,9.801262855529785,0.2059013396501541
1771525732138717400,1.092717529296875,0.9205705523490906,9.762955665588379,0.2059013396501541
1771525732148720000,1.10272021484375,0.9349357485771179,9.762955665588379,0.14365209639072418
1771525732158722800,1.112722900390625,0.9157821536064148,9.753378868103027,0.1388636976480484
1771525732178728200,1.132728271484375,0.9205705523490906,9.810839653015137,0.10534487664699554
1771525732188731000,1.14273095703125,0.9349357485771179,9.839570045471191,0.06703764945268631
1771525732198733600,1.152733642578125,1.0115501880645752,9.810839653015137,0.1628057211637497
1771525732208736300,1.162736328125,1.049857497215271,9.79647445678711,0.19153612852096558
1771525732218739000,1.172739013671875,1.0211269855499268,9.820416450500488,0.11971008777618408
1771525732228742000,1.182741943359375,0.9205705523490906,9.88745403289795,0.047884032130241394
1771525732238744600,1.19274462890625,0.829590916633606,9.839570045471191,0.15322890877723694
1771525732248747300,1.202747314453125,0.8343793153762817,9.858723640441895,0.2106897532939911
1771525732258750000,1.21275,0.9876081943511963,9.882665634155273,0.19632454216480255
1771525732268752600,1.222752685546875,1.0642226934432983,9.877877235412598,0.28730419278144836
1771525732278755300,1.23275537109375,1.0881646871566772,9.873088836669922,0.31603461503982544
1771525732288758000,1.242758056640625,1.0642226934432983,9.820416450500488,0.3016694188117981
1771525732298760700,1.2527607421875,1.016338586807251,9.839570045471191,0.24420857429504395
1771525732308763400,1.262763427734375,0.9971849918365479,9.868300437927246,0.19153612852096558
1771525732318766000,1.27276611328125,0.9828197956085205,9.839570045471191,0.1149216815829277
1771525732328768800,1.282768798828125,0.9445125460624695,9.858723640441895,0.12928688526153564
1771525732338771500,1.292771484375,0.9349357485771179,9.825204849243164,0.08140286058187485
1771525732348774100,1.302774169921875,0.8678981065750122,9.868300437927246,-0.038307227194309235
1771525732358777000,1.312777099609375,0.8535329103469849,9.916184425354004,-0.17238251864910126
1771525732368779800,1.32277978515625,0.8678981065750122,9.901819229125977,-0.16759411990642548
1771525732378782500,1.332782470703125,0.9349357485771179,9.86351203918457,-0.19153612852096558
1771525732388785200,1.34278515625,0.9205705523490906,9.844358444213867,-0.1628057211637497
1771525732398787800,1.352787841796875,0.8391677141189575,9.806051254272461,-0.009576806798577309
1771525732408790500,1.36279052734375,0.7433996200561523,9.786897659301758,0.043095629662275314
1771525732418793200,1.372793212890625,0.8774749040603638,9.77253246307373,-0.028730420395731926
1771525732428796000,1.3827958984375,0.9780313968658447,9.801262855529785,0.014365210197865963
1771525732438798600,1.392798583984375,1.116895079612732,9.791686058044434,0.06224924325942993
1771525732448801300,1.40280126953125,1.2844891548156738,9.825204849243164,0.1149216815829277
1771525732458804000,1.412803955078125,1.2509703636169434,9.801262855529785,0.15801730751991272
1771525732468806700,1.422806640625,1.0833762884140015,9.820416450500488,0.17717093229293823
1771525732478809300,1.432809326171875,0.9397241473197937,9.834781646728516,0.1628057211637497
1771525732488812300,1.442812255859375,0.872686505317688,9.844358444213867,0.13407529890537262
1771525732498815000,1.45281494140625,0.9062053561210632,9.849146842956543,0.15801730751991272
1771525732508817700,1.462817626953125,0.8918401598930359,9.825204849243164,0.1867477297782898
1771525732518820400,1.4728203125,0.973242998123169,9.753378868103027,0.12928688526153564
1771525732528823000,1.482822998046875,1.1791443824768066,9.786897659301758,0.11971008777618408
1771525732538825700,1.49282568359375,1.1743559837341309,9.791686058044434,0.019153613597154617
1771525732548828400,1.502828369140625,1.1791443824768066,9.825204849243164,-0.07182604819536209
1771525732558831000,1.5128310546875,1.1408370733261108,9.801262855529785,-0.038307227194309235
1771525732568833800,1.522833740234375,1.049857497215271,9.79647445678711,-0.019153613597154617
1771525732578836500,1.53283642578125,0.9684545993804932,9.79647445678711,-0.043095629662275314
1771525732588839200,1.542839111328125,0.9445125460624695,9.806051254272461,-0.05267243832349777
1771525732598841900,1.552841796875,0.9876081943511963,9.79647445678711,-0.023942016065120697
1771525732608844800,1.5628447265625,1.0881646871566772,9.820416450500488,-0.019153613597154617
1771525732618847500,1.572847412109375,1.0642226934432983,9.844358444213867,0.014365210197865963
1771525732628850200,1.58285009765625,1.0259153842926025,9.849146842956543,0.08140286058187485
1771525732638852900,1.592852783203125,1.0642226934432983,9.810839653015137,0.1388636976480484
1771525732648855600,1.60285546875,1.1408370733261108,9.820416450500488,0.14365209639072418
1771525732658858200,1.612858154296875,1.1456254720687866,9.786897659301758,0.1628057211637497
1771525732668861000,1.62286083984375,1.0785878896713257,9.786897659301758,0.23942017555236816
1771525732678863600,1.632863525390625,0.9445125460624695,9.767744064331055,0.2777273952960968
1771525732698869000,1.652868896484375,0.8056488633155823,9.748590469360352,0.13407529890537262
1771525732708871700,1.66287158203125,0.8774749040603638,9.739013671875,0.08619125932455063
1771525732718874400,1.672874267578125,0.8870517015457153,9.734225273132324,-0.033518824726343155
1771525732728877000,1.682876953125,0.9157821536064148,9.734225273132324,-0.15322890877723694
1771525732738880000,1.6928798828125,0.9684545993804932,9.734225273132324,-0.1867477297782898
1771525732748882700,1.702882568359375,0.9205705523490906,9.739013671875,-0.19632454216480255
1771525732758885400,1.712885498046875,0.8535329103469849,9.777320861816406,-0.14365209639072418
1771525732768888000,1.72288818359375,0.872686505317688,9.77253246307373,-0.05267243832349777
1771525732778890800,1.732890869140625,0.9062053561210632,9.79647445678711,0.06703764945268631
1771525732788893400,1.7428935546875,0.9062053561210632,9.820416450500488,0.1149216815829277
1771525732798896000,1.752896240234375,0.9301473498344421,9.849146842956543,0.11013327538967133
1771525732808898800,1.76289892578125,1.0211269855499268,9.873088836669922,0.14844051003456116
1771525732818901500,1.772901611328125,1.049857497215271,9.873088836669922,0.10534487664699554
1771525732828904200,1.782904296875,1.0402805805206299,9.925761222839355,0.009576806798577309
1771525732838907000,1.792906982421875,1.0115501880645752,9.9401273727417,0.05267243832349777
1771525732848909600,1.80290966796875,0.9493009448051453,9.92097282409668,0.1388636976480484
1771525732858912500,1.81291259765625,0.9205705523490906,9.911396026611328,0.1388636976480484
1771525732868915200,1.822915283203125,0.9493009448051453,9.916184425354004,0.11971008777618408
1771525732878918000,1.83291796875,0.9828197956085205,9.935338973999023,0.11013327538967133
1771525732888920600,1.842920654296875,1.0019733905792236,9.906607627868652,0.15322890877723694
1771525732898923300,1.85292333984375,1.0450690984725952,9.877877235412598,0.181959331035614
1771525732908926000,1.862926025390625,1.0259153842926025,9.86351203918457,0.16759411990642548
1771525732918928600,1.8729287109375,0.9445125460624695,9.844358444213867,0.15801730751991272
1771525732928931300,1.882931396484375,0.9062053561210632,9.844358444213867,0.1388636976480484
1771525732938934000,1.89293408203125,0.9062053561210632,9.810839653015137,0.1628057211637497
1771525732948936700,1.902936767578125,0.8487445116043091,9.777320861816406,0.2106897532939911
1771525732958939400,1.912939453125,0.7817068696022034,9.748590469360352,0.17238251864910126
1771525732968942000,1.922942138671875,0.7721300721168518,9.724648475646973,0.12928688526153564
1771525732978944800,1.93294482421875,0.8248024582862854,9.710283279418945,0.090979665517807
1771525732988947700,1.94294775390625,0.9205705523490906,9.691129684448242,0
1771525732998950400,1.952950439453125,0.8966285586357117,9.719860076904297,-0.06224924325942993
1771525733008953000,1.962953125,0.7481880187988281,9.715071678161621,-0.06224924325942993
1771525733018955800,1.972955810546875,0.5997475385665894,9.691129684448242,0.004788403399288654
1771525733028958500,1.98295849609375,0.6763619780540466,9.657610893249512,0.05267243832349777
1771525733038961200,1.992961181640625,0.7912836670875549,9.676764488220215,0.12449848651885986
1771525733048963800,2.0029638671875,0.767341673374176,9.691129684448242,0.10055647045373917
1771525733058966500,2.012966552734375,0.7577648162841797,9.748590469360352,0.047884032130241394
1771525733068969200,2.02296923828125,0.8918401598930359,9.767744064331055,0.06224924325942993
1771525733078972000,2.032971923828125,1.016338586807251,9.777320861816406,0.09576806426048279
1771525733088974600,2.042974609375,0.9253589510917664,9.810839653015137,0.07661445438861847
1771525733098977300,2.052977294921875,0.767341673374176,9.853935241699219,0.08140286058187485
1771525733108980000,2.06297998046875,0.7769184708595276,9.868300437927246,0.023942016065120697
1771525733118983000,2.07298291015625,0.9349357485771179,9.882665634155273,-0.023942016065120697
1771525733128985600,2.082985595703125,0.973242998123169,9.877877235412598,0.004788403399288654
1771525733138988300,2.09298828125,0.8822633028030396,9.877877235412598,0.06224924325942993
1771525733148991000,2.102990966796875,0.8056488633155823,9.849146842956543,0.07661445438861847
1771525733158993700,2.11299365234375,0.8104372620582581,9.858723640441895,0.09576806426048279
1771525733168996400,2.122996337890625,0.8631097078323364,9.834781646728516,0.11013327538967133
1771525733178999000,2.1329990234375,0.872686505317688,9.839570045471191,0.10055647045373917
1771525733189001700,2.143001708984375,0.8391677141189575,9.839570045471191,0.09576806426048279
1771525733199004400,2.15300439453125,0.767341673374176,9.844358444213867,0.11013327538967133
1771525733209007000,2.163007080078125,0.7481880187988281,9.834781646728516,0.11013327538967133
1771525733219009800,2.173009765625,0.8104372620582581,9.806051254272461,0.10055647045373917
1771525733229012500,2.183012451171875,0.9157821536064148,9.806051254272461,0.05746084079146385
1771525733239015400,2.193015380859375,0.9349357485771179,9.810839653015137,0.043095629662275314
1771525733249018000,2.20301806640625,0.8678981065750122,9.806051254272461,0.038307227194309235
1771525733259020800,2.213020751953125,0.8248024582862854,9.834781646728516,0.033518824726343155
1771525733269023500,2.2230234375,0.8152256608009338,9.834781646728516,0.08619125932455063
1771525733279026200,2.233026123046875,0.8439561128616333,9.801262855529785,0.11013327538967133
1771525733289028900,2.24302880859375,0.9349357485771179,9.825204849243164,0.038307227194309235
1771525733299031600,2.253031494140625,0.973242998123169,9.844358444213867,-0.07661445438861847
1771525733309034200,2.2630341796875,0.9636662006378174,9.844358444213867,-0.10534487664699554
1771525733319037000,2.273036865234375,0.9636662006378174,9.834781646728516,-0.023942016065120697
1771525733329039600,2.28303955078125,0.9253589510917664,9.844358444213867,-0.009576806798577309
1771525733339042300,2.293042236328125,0.8487445116043091,9.839570045471191,0.047884032130241394
1771525733349045000,2.303044921875,0.8487445116043091,9.858723640441895,0.033518824726343155
1771525733359047700,2.313047607421875,1.016338586807251,9.858723640441895,0.028730420395731926
1771525733369050600,2.323050537109375,1.0690110921859741,9.839570045471191,0.07661445438861847
1771525733379053300,2.33305322265625,0.9636662006378174,9.820416450500488,0.12928688526153564
1771525733389056000,2.343055908203125,0.8343793153762817,9.762955665588379,0.14844051003456116
1771525733399058700,2.35305859375,0.8056488633155823,9.762955665588379,0.12928688526153564
1771525733409061400,2.363061279296875,0.6811503767967224,9.791686058044434,0.06224924325942993
1771525733419064000,2.37306396484375,0.6045359373092651,9.815628051757812,-0.014365210197865963
1771525733429066800,2.383066650390625,0.6476315855979919,9.810839653015137,-0.10055647045373917
1771525733439069400,2.3930693359375,0.8966285586357117,9.791686058044434,-0.10534487664699554
1771525733449072000,2.403072021484375,1.0211269855499268,9.810839653015137,-0.06703764945268631
1771525733459074800,2.41307470703125,0.9301473498344421,9.810839653015137,-0.047884032130241394
1771525733469077500,2.423077392578125,0.872686505317688,9.79647445678711,-0.043095629662275314
1771525733479080200,2.433080078125,0.8870517015457153,9.782109260559082,-0.043095629662275314
1771525733489083100,2.443083251953125,0.9876081943511963,9.748590469360352,0.047884032130241394
1771525733499085800,2.4530859375,0.9540894031524658,9.734225273132324,0.06224924325942993
1771525733509088500,2.463088623046875,0.8248024582862854,9.734225273132324,-0.023942016065120697
1771525733519091200,2.47309130859375,0.7433996200561523,9.758167266845703,-0.090979665517807
1771525733529094000,2.483093994140625,0.7577648162841797,9.743802070617676,-0.14365209639072418
1771525733539096600,2.4930966796875,0.7864952683448792,9.758167266845703,-0.1628057211637497
1771525733549099300,2.503099365234375,0.7529764175415039,9.777320861816406,-0.1149216815829277
1771525733559098600,2.5130986328125,0.6715735793113708,9.77253246307373,-0.07182604819536209
1771525733579097600,2.53309765625,0.8200140595436096,9.791686058044434,-0.07661445438861847
1771525733589098000,2.543097900390625,0.9014169573783875,9.782109260559082,-0.004788403399288654
1771525733599098600,2.5530986328125,0.872686505317688,9.777320861816406,0.06224924325942993
1771525733609100300,2.563100341796875,0.8008604645729065,9.782109260559082,0.090979665517807
1771525733619102200,2.573102294921875,0.7625532150268555,9.820416450500488,0.043095629662275314
1771525733629105200,2.583105224609375,0.7625532150268555,9.853935241699219,0
1771525733639108600,2.593108642578125,0.7960720658302307,9.839570045471191,0.019153613597154617
1771525733649112600,2.603112548828125,0.7864952683448792,9.815628051757812,-0.009576806798577309
1771525733659117000,2.613116943359375,0.8200140595436096,9.806051254272461,-0.038307227194309235
1771525733669122000,2.6231220703125,0.8439561128616333,9.782109260559082,0
1771525733679127300,2.633127197265625,0.7960720658302307,9.758167266845703,0.009576806798577309
1771525733689132800,2.6431328125,0.7864952683448792,9.748590469360352,0.009576806798577309
1771525733699138300,2.65313818359375,0.8391677141189575,9.734225273132324,0.023942016065120697
1771525733709143300,2.663143310546875,0.8870517015457153,9.739013671875,0.038307227194309235
1771525733719146000,2.67314599609375,0.8870517015457153,9.719860076904297,0.033518824726343155
1771525733729148700,2.683148681640625,0.8966285586357117,9.719860076904297,0.028730420395731926
1771525733739151400,2.6931513671875,0.8918401598930359,9.710283279418945,0
1771525733749154000,2.703154052734375,0.8535329103469849,9.715071678161621,-0.06224924325942993
1771525733759156700,2.71315673828125,0.8200140595436096,9.734225273132324,-0.07182604819536209
1771525733769159400,2.723159423828125,0.6667851805686951,9.724648475646973,-0.07661445438861847
1771525733779162000,2.733162109375,0.48482584953308105,9.715071678161621,-0.043095629662275314
1771525733789164800,2.743164794921875,0.43694180250167847,9.70549488067627,-0.009576806798577309
1771525733799167500,2.75316748046875,0.5231330990791321,9.710283279418945,-0.028730420395731926
1771525733809170200,2.763170166015625,0.6524199843406677,9.739013671875,-0.05746084079146385
1771525733819172900,2.7731728515625,0.8056488633155823,9.791686058044434,-0.07182604819536209
1771525733829175300,2.78317529296875,0.8631097078323364,9.77253246307373,-0.038307227194309235
1771525733839178000,2.793177978515625,0.9014169573783875,9.791686058044434,-0.07182604819536209
1771525733849180700,2.8031806640625,0.8678981065750122,9.777320861816406,-0.08140286058187485
1771525733859183400,2.813183349609375,0.6811503767967224,9.782109260559082,-0.047884032130241394
1771525733869186000,2.82318603515625,0.5518634915351868,9.762955665588379,-0.004788403399288654
1771525733879188700,2.833188720703125,0.4991910457611084,9.743802070617676,0.004788403399288654
1771525733889191400,2.84319140625,0.4321534037590027,9.734225273132324,-0.009576806798577309
1771525733899194000,2.853194091796875,0.4034229815006256,9.743802070617676,-0.023942016065120697
1771525733909196500,2.863196533203125,0.4082113802433014,9.743802070617676,-0.05746084079146385
1771525733929202000,2.883201904296875,0.38905778527259827,9.748590469360352,-0.019153613597154617
1771525733939204600,2.89320458984375,0.3315969407558441,9.753378868103027,-0.019153613597154617
1771525733949207300,2.903207275390625,0.3172317147254944,9.79647445678711,-0.05746084079146385
1771525733959210000,2.9132099609375,0.2645592987537384,9.815628051757812,-0.06224924325942993
1771525733969212700,2.923212646484375,0.3124433159828186,9.791686058044434,-0.004788403399288654
1771525733979215400,2.93321533203125,0.39384618401527405,9.810839653015137,0.047884032130241394
1771525733989217800,2.9432177734375,0.365115761756897,9.844358444213867,0.08619125932455063
1771525733999220500,2.953220458984375,0.3076549172401428,9.844358444213867,0.1628057211637497
1771525734009223200,2.96322314453125,0.29807811975479126,9.849146842956543,0.22505496442317963
1771525734019225900,2.973225830078125,0.38905778527259827,9.882665634155273,0.2537853717803955
1771525734029228500,2.983228515625,0.4944026470184326,9.8970308303833,0.272938996553421
1771525734039231200,2.993231201171875,0.6236895322799683,9.868300437927246,0.26336219906806946
1771525734049234000,3.00323388671875,0.7912836670875549,9.8970308303833,0.20111294090747833
1771525734059236600,3.013236572265625,0.829590916633606,9.8970308303833,0.1388636976480484
1771525734069239300,3.0232392578125,0.7577648162841797,9.892242431640625,0.11971008777618408
1771525734079242000,3.033241943359375,0.6524199843406677,9.858723640441895,0.1628057211637497
1771525734089244700,3.04324462890625,0.628477931022644,9.82999324798584,0.17717093229293823
1771525734099247600,3.05324755859375,0.729034423828125,9.791686058044434,0.15322890877723694
1771525734109250300,3.063250244140625,0.8631097078323364,9.719860076904297,0.19153612852096558
1771525734119253000,3.0732529296875,0.973242998123169,9.710283279418945,0.181959331035614
1771525734129255700,3.083255615234375,0.9780313968658447,9.729436874389648,0.14365209639072418
1771525734139258400,3.09325830078125,0.9349357485771179,9.758167266845703,0.15801730751991272
1771525734149261000,3.103260986328125,0.8439561128616333,9.825204849243164,0.12928688526153564
1771525734159263700,3.113263671875,0.6955155730247498,9.916184425354004,0.09576806426048279
1771525734169266400,3.123266357421875,0.5183446407318115,9.983222961425781,0.15322890877723694
1771525734179269000,3.13326904296875,0.4513070285320282,9.964069366455078,0.22026655077934265
1771525734189271800,3.143271728515625,0.5422866940498352,9.978434562683105,0.3208230137825012
1771525734199274500,3.1532744140625,0.6859387755393982,9.868300437927246,0.40701428055763245
1771525734209277200,3.163277099609375,0.7577648162841797,9.873088836669922,0.42616790533065796
1771525734219280000,3.17327978515625,0.7146692276000977,9.820416450500488,0.49320554733276367
1771525734229282800,3.18328271484375,0.46567222476005554,9.753378868103027,0.49799394607543945
1771525734239285500,3.193285400390625,0.08259996026754379,9.743802070617676,0.5650315880775452
1771525734249288200,3.2032880859375,-0.32441434264183044,9.667187690734863,0.6033388376235962
1771525734259291000,3.213290771484375,-0.568622887134552,9.652822494506836,0.5650315880775452
1771525734269293600,3.22329345703125,-0.645237386226654,9.667187690734863,0.4596867263317108
1771525734279296300,3.233296142578125,-0.5829881429672241,9.652822494506836,0.3064578175544739
1771525734289299000,3.243298828125,-0.4010287821292877,9.609726905822754,0.08619125932455063
1771525734299301600,3.253301513671875,-0.15682020783424377,9.571419715881348,-0.047884032130241394
1771525734309304300,3.26330419921875,0.0586579404771328,9.542689323425293,-0.047884032130241394
1771525734319307000,3.27330712890625,0.11611878126859665,9.542689323425293,0.014365210197865963
1771525734329309700,3.283309814453125,0.25977087020874023,9.499593734741211,0.019153613597154617
1771525734339312400,3.2933125,0.5279214978218079,9.533112525939941,0.004788403399288654
1771525734349315000,3.303315185546875,0.7098808288574219,9.504382133483887,0.08619125932455063
1771525734359318000,3.313318115234375,0.7721300721168518,9.49001693725586,0.19153612852096558
1771525734369320700,3.32332080078125,0.6476315855979919,9.485228538513184,0.3208230137825012
1771525734379323400,3.333323486328125,0.4034229815006256,9.408614158630371,0.45489832758903503
1771525734389326000,3.343326171875,0.18315643072128296,9.394248962402344,0.5506663918495178
1771525734399328800,3.353328857421875,0.02992752194404602,9.389460563659668,0.569819986820221
1771525734409331500,3.36333154296875,0.08259996026754379,9.403825759887695,0.5219359993934631
1771525734419334100,3.373334228515625,0.13527239859104156,9.408614158630371,0.5027823448181152
1771525734429336800,3.3833369140625,0.2932897210121155,9.39903736114502,0.5123591423034668
1771525734439339500,3.393339599609375,0.5422866940498352,9.494805335998535,0.4165911078453064
1771525734449342200,3.40334228515625,0.6572083830833435,9.475651741027832,0.3208230137825012
1771525734459345000,3.413344970703125,0.7003039717674255,9.518747329711914,0.43095630407333374
1771525734469347600,3.42334765625,0.6811503767967224,9.547477722167969,0.5027823448181152
1771525734479350500,3.4333505859375,0.7003039717674255,9.542689323425293,0.5363011956214905
1771525734489353200,3.443353271484375,0.7864952683448792,9.595361709594727,0.507570743560791
1771525734499356000,3.45335595703125,0.8104372620582581,9.68155288696289,0.5027823448181152
1771525734509358600,3.463358642578125,0.7433996200561523,9.758167266845703,0.47884035110473633
1771525734519361300,3.473361328125,0.690727174282074,9.820416450500488,0.4836287498474121
1771525734529364000,3.483364013671875,0.6189011335372925,9.882665634155273,0.5171475410461426
1771525734539366700,3.49336669921875,0.5566518902778625,9.911396026611328,0.5363011956214905
1771525734549369300,3.503369384765625,0.50876784324646,9.959280967712402,0.5123591423034668
1771525734559372000,3.5133720703125,0.4082113802433014,10.026318550109863,0.4213795065879822
1771525734569374700,3.523374755859375,0.29807811975479126,10.074202537536621,0.4213795065879822
1771525734579377400,3.53337744140625,0.17836803197860718,10.083779335021973,0.5219359993934631
1771525734589380000,3.543380126953125,0.03950432687997818,10.15560531616211,0.6655880808830261
1771525734599382800,3.5533828125,0.09696517139673233,10.174758911132812,0.7374141216278076
1771525734609385700,3.5633857421875,0.13048399984836578,10.270526885986328,0.8044517636299133
1771525734619388400,3.573388427734375,0.1735796183347702,10.323199272155762,0.8571242094039917
1771525734639393800,3.593393798828125,0.3172317147254944,10.538677215576172,0.9241618514060974
1771525734649396500,3.603396484375,0.2214636504650116,10.682329177856445,0.8906430602073669
1771525734659399200,3.613399169921875,0.2214636504650116,10.845134735107422,0.8188169598579407
1771525734669401900,3.62340185546875,0.3124433159828186,10.993576049804688,0.7374141216278076
1771525734679404500,3.633404541015625,0.5327098965644836,11.209053993225098,0.6607996821403503
1771525734689407200,3.6434072265625,0.6332663297653198,11.381436347961426,0.5985504388809204
1771525734699410000,3.653409912109375,0.6476315855979919,11.577760696411133,0.5841852426528931
1771525734709412600,3.66341259765625,0.6093243360519409,11.673528671264648,0.5793967843055725
1771525734719415300,3.673415283203125,0.5183446407318115,11.730989456176758,0.4596867263317108
1771525734729418200,3.683418212890625,0.5662286877632141,11.663951873779297,0.33997663855552673
1771525734739421000,3.6934208984375,0.6667851805686951,11.563395500183105,0.17238251864910126
1771525734749423600,3.703423583984375,0.7721300721168518,11.304821968078613,-0.028730420395731926
1771525734759426300,3.71342626953125,0.8200140595436096,11.074978828430176,-0.2585737705230713
1771525734769429000,3.723428955078125,0.9205705523490906,10.816404342651367,-0.3878606855869293
1771525734779431700,3.733431640625,1.049857497215271,10.701482772827148,-0.26815059781074524
1771525734789434400,3.743434326171875,0.9780313968658447,10.5530424118042,-0.009576806798577309
1771525734799437000,3.75343701171875,1.035492181777954,10.476428031921387,0.2346317619085312
1771525734809439700,3.763439697265625,1.313219666481018,10.428544044494629,0.3926490843296051
1771525734829445000,3.783445068359375,2.874239206314087,10.193912506103516,0.4884171485900879
1771525734839447800,3.79344775390625,3.621230125427246,9.9401273727417,0.37828385829925537
1771525734849450500,3.803450439453125,4.1862616539001465,9.667187690734863,0.1628057211637497
1771525734859453400,3.813453369140625,4.444835662841797,9.485228538513184,0.043095629662275314
1771525734869456100,3.8234560546875,4.124012470245361,9.437344551086426,-0.023942016065120697
1771525734879458800,3.833458740234375,3.2142157554626465,9.427767753601074,0.043095629662275314
1771525734889461500,3.84346142578125,1.9835960865020752,9.437344551086426,0.2585737705230713
1771525734899464200,3.853464111328125,0.8248024582862854,9.504382133483887,0.42616790533065796
1771525734909467000,3.863466796875,-0.061052143573760986,9.585784912109375,0.33039984107017517
1771525734919469600,3.873469482421875,-0.41539400815963745,9.710283279418945,0.14844051003456116
1771525734929472300,3.88347216796875,-0.45848962664604187,9.79647445678711,-0.10055647045373917
1771525734939475000,3.893474853515625,-0.18555063009262085,9.77253246307373,-0.4213795065879822
1771525734949477600,3.9034775390625,0.32202014327049255,9.710283279418945,-0.6991068720817566
1771525734959480300,3.913480224609375,1.0019733905792236,9.600150108337402,-0.7613561153411865
1771525734969483000,3.92348291015625,1.624465823173523,9.475651741027832,-0.7230489253997803
1771525734979485700,3.933485595703125,1.9835960865020752,9.331999778747559,-0.6129156351089478
1771525734989488600,3.943488525390625,2.227804660797119,9.202713012695312,-0.40701428055763245
1771525734999491300,3.9534912109375,2.3331496715545654,9.1260986328125,-0.1388636976480484
1771525735009494000,3.963493896484375,2.3810336589813232,9.025542259216309,0.14844051003456116
1771525735019496700,3.97349658203125,2.3044190406799316,8.9249849319458,0.3734954595565796
1771525735029499400,3.98349951171875,2.055422067642212,8.834005355834961,0.5123591423034668
1771525735039502000,3.993502197265625,1.7585411071777344,8.776544570922852,0.5363011956214905
1771525735049504800,4.0035048828125,1.6484078168869019,8.714295387268066,0.40222588181495667
1771525735059507500,4.013507568359375,1.6531962156295776,8.594585418701172,0.15322890877723694
1771525735069510100,4.02351025390625,1.5430630445480347,8.580220222473145,0.023942016065120697
1771525735079512800,4.033512939453125,1.4520833492279053,8.474875450134277,-0.19632454216480255
1771525735089515500,4.043515625,1.217451572418213,8.465298652648926,-0.24899697303771973
1771525735099518200,4.053518310546875,1.0019733905792236,8.36953067779541,-0.2585737705230713
1771525735109521200,4.063521240234375,0.8343793153762817,8.417414665222168,-0.2059013396501541
1771525735119523800,4.07352392578125,0.8104372620582581,8.465298652648926,-0.1867477297782898
1771525735129526500,4.083526611328125,0.9588778018951416,8.503605842590332,-0.17238251864910126
1771525735139529200,4.093529296875,1.116895079612732,8.575431823730469,-0.20111294090747833
1771525735149532000,4.103531982421875,1.169567584991455,8.666411399841309,-0.3016694188117981
1771525735159534600,4.11353466796875,1.1312602758407593,8.771756172180176,-0.35913026332855225
1771525735169537300,4.123537353515625,1.0546458959579468,8.886677742004395,-0.3447650372982025
1771525735179540000,4.1335400390625,0.9397241473197937,9.030330657958984,-0.3687070608139038
1771525735189542700,4.143542724609375,0.7242460250854492,9.221866607666016,-0.37828385829925537
1771525735199545300,4.15354541015625,0.5374982953071594,9.446921348571777,-0.3926490843296051
1771525735209548000,4.163548095703125,0.4129997789859772,9.662399291992188,-0.33518823981285095
1771525735219550700,4.17355078125,0.48961424827575684,9.882665634155273,-0.28730419278144836
1771525735229553400,4.183553466796875,0.7003039717674255,10.102932929992676,-0.2777273952960968
1771525735239556400,4.193556396484375,0.8966285586357117,10.366294860839844,-0.3016694188117981
1771525735249559000,4.20355908203125,0.9588778018951416,10.567407608032227,-0.3495534360408783
1771525735259561700,4.213561767578125,1.0067617893218994,10.821192741394043,-0.3974374830722809
1771525735269564400,4.223564453125,0.9636662006378174,11.01272964477539,-0.4118026793003082
1771525735279567000,4.233567138671875,0.829590916633606,11.261726379394531,-0.33997663855552673
1771525735289569800,4.24356982421875,0.7864952683448792,11.46762752532959,-0.33997663855552673
1771525735299572500,4.253572509765625,0.9014169573783875,11.663951873779297,-0.35434186458587646
1771525735309575200,4.2635751953125,1.1216834783554077,11.793238639831543,-0.22026655077934265
1771525735319577900,4.273577880859375,1.3706804513931274,11.879429817199707,-0.047884032130241394
1771525735329580500,4.28358056640625,1.581370234489441,12.003929138183594,0.14365209639072418
1771525735339583200,4.293583251953125,1.5670050382614136,12.061389923095703,0.3926490843296051
1771525735349586000,4.3035859375,1.4089876413345337,12.142792701721191,0.7182605266571045
1771525735359588600,4.313588623046875,1.0402805805206299,12.205041885375977,0.9528923034667969
1771525735369591300,4.32359130859375,0.5949591398239136,12.066178321838379,1.235408067703247
1771525735379594000,4.333593994140625,0.44173020124435425,11.8411226272583,1.2976573705673218
1771525735389596700,4.3435966796875,0.6189011335372925,11.640009880065918,1.1971008777618408
1771525735399599400,4.353599365234375,1.1791443824768066,11.333552360534668,0.9145850539207458
1771525735409602000,4.36360205078125,2.1368250846862793,10.974422454833984,0.3926490843296051
1771525735419604700,4.373604736328125,3.180696964263916,10.682329177856445,-0.047884032130241394
1771525735429607200,4.383607177734375,3.932476282119751,10.327987670898438,-0.24899697303771973
1771525735439609900,4.39360986328125,4.061763286590576,10.088567733764648,-0.33997663855552673
1771525735449612500,4.403612548828125,3.2764649391174316,10.016741752624512,-0.15322890877723694
1771525735459615200,4.413615234375,1.8590975999832153,9.844358444213867,0.272938996553421
1771525735469618000,4.423617919921875,0.6667851805686951,9.767744064331055,0.6368576288223267
1771525735479620600,4.43362060546875,-0.1999158412218094,9.782109260559082,0.790086567401886
1771525735489623300,4.443623291015625,-0.7841010689735413,9.724648475646973,0.8571242094039917
1771525735499626000,4.4536259765625,-0.9660604000091553,9.695918083190918,0.790086567401886
1771525735509628400,4.46362841796875,-0.6356605291366577,9.49001693725586,0.5746083855628967
1771525735519631000,4.473631103515625,0.07781155407428741,9.21707820892334,0.45010992884635925
1771525735529633800,4.4836337890625,0.9923965930938721,8.948927879333496,0.38307225704193115
1771525735539636500,4.493636474609375,1.9309237003326416,8.752602577209473,0.19153612852096558
1771525735549639200,4.50363916015625,2.6396074295043945,8.513182640075684,0.17238251864910126
1771525735559641900,4.513641845703125,2.960430383682251,8.283339500427246,0.31124621629714966
1771525735569644500,4.52364453125,2.960430383682251,8.130110740661621,0.44532153010368347
1771525735579647200,4.533647216796875,2.8215668201446533,7.933785915374756,0.47405192255973816
1771525735589649700,4.543649658203125,2.5965118408203125,7.761403560638428,0.4692635238170624
1771525735599652400,4.55365234375,2.2373814582824707,7.593809127807617,0.5123591423034668
1771525735609655000,4.563655029296875,1.744175910949707,7.512406349182129,0.507570743560791
1771525735619657700,4.57365771484375,1.4281413555145264,7.464522361755371,0.3208230137825012
1771525735629660400,4.583660400390625,1.2701239585876465,7.459733963012695,0.17238251864910126
1771525735639663000,4.5936630859375,1.0977414846420288,7.512406349182129,0.17238251864910126
1771525735649665800,4.603665771484375,1.0259153842926025,7.517194747924805,0.2537853717803955
1771525735659668500,4.61366845703125,1.1121066808700562,7.498041152954102,0.23942017555236816
1771525735669671000,4.6236708984375,0.9971849918365479,7.617751121520996,0.23942017555236816
1771525735679673600,4.633673583984375,0.910993754863739,7.7183074951171875,0.2777273952960968
1771525735689676300,4.64367626953125,0.9014169573783875,7.818864345550537,0.3256114423274994
1771525735699679000,4.653678955078125,0.9062053561210632,7.9864583015441895,0.4213795065879822
1771525735709681700,4.663681640625,0.8966285586357117,8.192359924316406,0.569819986820221
1771525735719684400,4.673684326171875,1.0115501880645752,8.388684272766113,0.6607996821403503
1771525735729687300,4.683687255859375,1.2222399711608887,8.575431823730469,0.6033388376235962
1771525735739690000,4.69368994140625,1.1456254720687866,8.862735748291016,0.5171475410461426
1771525735749692700,4.703692626953125,1.0833762884140015,9.169194221496582,0.47884035110473633
1771525735759695400,4.7136953125,0.9062053561210632,9.528324127197266,0.4596867263317108
1771525735769698000,4.723697998046875,0.6332663297653198,9.849146842956543,0.5219359993934631
1771525735779700700,4.73370068359375,0.4704606235027313,10.146028518676758,0.6033388376235962
1771525735789703400,4.743703369140625,0.5518634915351868,10.433332443237305,0.5123591423034668
1771525735799706000,4.7537060546875,0.7050924301147461,10.754155158996582,0.4357447028160095
1771525735809708800,4.763708740234375,0.8248024582862854,11.051036834716797,0.45010992884635925
1771525735819711500,4.77371142578125,0.973242998123169,11.266514778137207,0.5315127968788147
1771525735829714200,4.783714111328125,1.0546458959579468,11.381436347961426,0.6129156351089478
1771525735839716900,4.793716796875,1.0833762884140015,11.563395500183105,0.6847416758537292
1771525735849719600,4.803719482421875,1.1504138708114624,11.640009880065918,0.5841852426528931
1771525735859722500,4.813722412109375,1.2844891548156738,11.750143051147461,0.7661445140838623
1771525735869725200,4.82372509765625,1.5526398420333862,11.769296646118164,0.8092401623725891
1771525735879727900,4.833727783203125,1.7968484163284302,11.936891555786133,0.8427590131759644
1771525735889730600,4.84373046875,1.7729063034057617,12.185888290405273,0.9145850539207458
1771525735899733200,4.853733154296875,1.3946224451065063,12.420519828796387,0.9911994934082031
1771525735909736000,4.86373583984375,0.9923965930938721,12.477980613708496,0.8619126081466675
1771525735919738600,4.873738525390625,0.5662286877632141,12.501922607421875,0.5985504388809204
1771525735929741300,4.8837412109375,0.22625206410884857,12.25771427154541,0.1867477297782898
1771525735939744000,4.893743896484375,0.41778820753097534,11.908161163330078,-0.40701428055763245
1771525735949746700,4.90374658203125,1.0977414846420288,11.491569519042969,-1.0247182846069336
1771525735959749400,4.913749267578125,1.8830395936965942,11.089344024658203,-1.3072341680526733
1771525735969752000,4.923751953125,2.6204538345336914,10.7110595703125,-1.3455413579940796
1771525735979755000,4.933755126953125,2.8455088138580322,10.28010368347168,-1.0247182846069336
1771525735989757700,4.9437578125,2.539050817489624,10.078990936279297,-0.5027823448181152
1771525735999760400,4.953760498046875,1.9788076877593994,10.026318550109863,0.023942016065120697
1771525736009763000,4.96376318359375,1.4760253429412842,9.954492568969727,0.4836287498474121
1771525736019765800,4.973765869140625,1.169567584991455,9.983222961425781,0.7709329724311829
1771525736029768400,4.9837685546875,1.236605167388916,9.930550575256348,0.7469909191131592
1771525736039771100,4.993771240234375,1.5143325328826904,10.021530151367188,0.7757213711738586
1771525736049773800,5.00377392578125,1.7585411071777344,10.035895347595215,0.6320692300796509
1771525736059776500,5.013776611328125,1.9740192890167236,10.00716495513916,0.43095630407333374
1771525736069779200,5.023779296875,2.184709072113037,9.825204849243164,0.15801730751991272
1771525736079782000,5.033781982421875,2.2613234519958496,9.576208114624023,-0.07661445438861847
1771525736089784600,5.04378466796875,2.3714568614959717,9.264962196350098,-0.3064578175544739
1771525736099787300,5.053787353515625,2.409764051437378,8.963293075561523,-0.5267243981361389
1771525736109790200,5.063790283203125,2.318784236907959,8.73344898223877,-0.49799394607543945
1771525736119793000,5.07379296875,2.0937294960021973,8.436568260192871,-0.33997663855552673
1771525736129795600,5.083795654296875,1.868674397468567,8.144475936889648,-0.181959331035614
1771525736139798300,5.09379833984375,1.6053122282028198,7.8092875480651855,-0.028730420395731926
1771525736149801000,5.103801025390625,1.4089876413345337,7.545925140380859,0.14844051003456116
1771525736159803600,5.1138037109375,1.2030863761901855,7.354389190673828,0.12928688526153564
1771525736169806300,5.123806396484375,1.0019733905792236,7.3017168045043945,0.038307227194309235
1771525736179809000,5.13380908203125,0.9014169573783875,7.2586212158203125,0.023942016065120697
1771525736189811700,5.143811767578125,0.829590916633606,7.234679222106934,0.08619125932455063
1771525736199814400,5.153814453125,0.8487445116043091,7.191583156585693,0.12449848651885986
1771525736209817000,5.163817138671875,0.8822633028030396,7.282563209533691,0.21547815203666687
1771525736219819800,5.17381982421875,0.872686505317688,7.36396598815918,0.3734954595565796
1771525736229822700,5.18382275390625,0.7960720658302307,7.526771545410156,0.33997663855552673
1771525736239825400,5.193825439453125,0.7098808288574219,7.7230963706970215,0.23942017555236816
1771525736249828000,5.203828125,0.6476315855979919,7.92899751663208,0.15801730751991272
1771525736259830800,5.213830810546875,0.43694180250167847,8.110957145690918,0.06703764945268631
1771525736269833500,5.22383349609375,0.5758054852485657,8.326435089111328,-0.028730420395731926
1771525736279836200,5.233836181640625,0.9301473498344421,8.637681007385254,-0.21547815203666687
1771525736289838800,5.2438388671875,1.4089876413345337,8.944138526916504,-0.35913026332855225
1771525736299841500,5.253841552734375,1.7633295059204102,9.2841157913208,-0.49320554733276367
1771525736309844200,5.26384423828125,1.8590975999832153,9.604938507080078,-0.5554547905921936
1771525736319847000,5.273846923828125,1.6819267272949219,9.97364616394043,-0.49799394607543945
1771525736329849600,5.283849609375,1.2701239585876465,10.356718063354492,-0.3447650372982025
1771525736339852300,5.293852294921875,1.2461819648742676,10.691905975341797,-0.2537853717803955
1771525736349855000,5.30385498046875,1.3323732614517212,10.940903663635254,-0.3495534360408783
1771525736359858000,5.31385791015625,1.0785878896713257,11.371859550476074,-0.2825157940387726
1771525736369860600,5.323860595703125,1.1408370733261108,11.606491088867188,-0.16759411990642548
1771525736379863300,5.33386328125,1.4185645580291748,11.869853019714355,-0.15801730751991272
1771525736389866000,5.343865966796875,1.7106571197509766,12.066178321838379,-0.033518824726343155
1771525736399868400,5.353868408203125,1.868674397468567,12.185888290405273,0.10534487664699554
1771525736409871000,5.36387109375,1.9788076877593994,12.343905448913574,0.004788403399288654
1771525736419873800,5.373873779296875,1.9261353015899658,12.568960189819336,0.05746084079146385
1771525736429876500,5.38387646484375,1.4089876413345337,12.83711051940918,0.24899697303771973
1771525736439879200,5.393879150390625,0.6141127347946167,13.086108207702637,0.6272808313369751
1771525736449881900,5.4038818359375,-0.11851298063993454,13.181876182556152,1.2401964664459229
1771525736459884500,5.413884521484375,-0.3579331636428833,13.07174301147461,1.6663644313812256
1771525736469887200,5.42388720703125,0.13048399984836578,12.8131685256958,1.5849615335464478
1771525736479889700,5.4338896484375,1.1982979774475098,12.329540252685547,1.2880805730819702
1771525736509897700,5.463897705078125,4.358644008636475,10.897807121276855,0.2346317619085312
1771525736519900400,5.473900390625,3.951629877090454,10.7110595703125,0.45489832758903503
1771525736529903000,5.483903076171875,2.7880477905273438,10.452486038208008,0.9193734526634216
1771525736539905800,5.49390576171875,1.456871747970581,10.217854499816895,1.2689268589019775
1771525736549908500,5.503908447265625,0.4704606235027313,10.035895347595215,1.41257905960083
1771525736559911000,5.513910888671875,-0.11851298063993454,9.853935241699219,1.479616641998291
1771525736569913600,5.52391357421875,-0.3387795388698578,9.710283279418945,1.3646949529647827
1771525736579916300,5.533916259765625,-0.25737667083740234,9.413402557373047,1.1252747774124146
1771525736589919000,5.5439189453125,0.28371289372444153,9.020753860473633,0.8571242094039917
1771525736599921700,5.553921630859375,1.0067617893218994,8.637681007385254,0.6799532771110535
1771525736609924400,5.56392431640625,1.6675615310668945,8.283339500427246,0.6512228846549988
1771525736619927000,5.573927001953125,2.074575662612915,7.967304706573486,0.6416460275650024
1771525736639932200,5.59393212890625,2.4145524501800537,7.340023994445801,0.8092401623725891
1771525736649934800,5.603934814453125,2.232593059539795,7.114968776702881,0.8475474119186401
1771525736659937500,5.6139375,1.9931728839874268,6.899490833282471,0.7374141216278076
1771525736669940200,5.623940185546875,1.868674397468567,6.722319602966309,0.608127236366272
1771525736679943000,5.63394287109375,1.7154455184936523,6.64091682434082,0.45010992884635925
1771525736689945600,5.643945556640625,1.4712369441986084,6.60739803314209,0.3064578175544739
1771525736699948300,5.6539482421875,1.2557587623596191,6.621763229370117,0.09576806426048279
1771525736709951000,5.663950927734375,0.9828197956085205,6.69837760925293,-0.019153613597154617
1771525736719953400,5.673953369140625,0.8583213090896606,6.789357662200928,-0.06703764945268631
1771525736729956000,5.6839560546875,0.8343793153762817,6.875548839569092,-0.009576806798577309
1771525736739958800,5.693958740234375,0.8870517015457153,7.000047206878662,0.11013327538967133
1771525736749961500,5.70396142578125,0.9588778018951416,7.17242956161499,0.22026655077934265
1771525736759964200,5.713964111328125,1.0785878896713257,7.330447196960449,0.3208230137825012
1771525736769966800,5.723966796875,1.1504138708114624,7.531559944152832,0.3495534360408783
1771525736779969500,5.733969482421875,1.1839327812194824,7.80449914932251,0.31603461503982544
1771525736789972200,5.74397216796875,1.1504138708114624,8.134899139404297,0.2585737705230713
1771525736799974700,5.753974609375,1.0881646871566772,8.513182640075684,0.24899697303771973
1771525736809977300,5.763977294921875,0.8870517015457153,8.896254539489746,0.3256114423274994
1771525736819980000,5.77397998046875,0.7817068696022034,9.25059700012207,0.3447650372982025
1771525736829983000,5.78398291015625,0.8391677141189575,9.638457298278809,0.2537853717803955
1771525736839985700,5.793985595703125,0.9923965930938721,10.00716495513916,0.19153612852096558
1771525736849988400,5.80398828125,1.260547161102295,10.366294860839844,0.2106897532939911
1771525736859991000,5.813990966796875,1.581370234489441,10.667963981628418,0.35434186458587646
1771525736869993700,5.82399365234375,1.8255788087844849,10.960057258605957,0.5746083855628967
1771525736879996400,5.833996337890625,1.92134690284729,11.185111999511719,0.8427590131759644
1771525736889999000,5.8439990234375,2.0266916751861572,11.400589942932129,1.0438719987869263
1771525736900001800,5.854001708984375,1.9261353015899658,11.697470664978027,1.2545616626739502
1771525736910004500,5.86400439453125,1.6484078168869019,12.090120315551758,1.460463047027588
1771525736920007200,5.874007080078125,1.4520833492279053,12.262502670288086,1.3694833517074585
1771525736930009900,5.884009765625,1.6340426206588745,12.650362968444824,1.4748282432556152
1771525736940012500,5.894012451171875,1.8782511949539185,12.856264114379883,1.2976573705673218
1771525736950015200,5.90401513671875,2.0410568714141846,13.41171932220459,1.3072341680526733
1771525736960018200,5.91401806640625,1.4856021404266357,13.35425853729248,0.6799532771110535
1771525736970020900,5.924020751953125,1.1408370733261108,13.560159683227539,0.7038952708244324
1771525736980023600,5.9340234375,1.0211269855499268,13.26327896118164,0.24899697303771973
1771525736990026200,5.944026123046875,1.3084312677383423,13.0142822265625,-0.2585737705230713
1771525737000029000,5.95402880859375,2.2038626670837402,12.540229797363281,-0.6129156351089478
1771525737010031600,5.964031494140625,3.4392707347869873,11.989563941955566,-0.7805097699165344
1771525737020034300,5.974034423828125,4.200626850128174,11.367071151733398,-0.6368576288223267
1771525737030037000,5.984037109375,4.162319660186768,10.940903663635254,-0.33518823981285095
1771525737040039700,5.994039794921875,3.161543369293213,10.778097152709961,0.1149216815829277
1771525737050042400,6.00404248046875,1.6675615310668945,10.600926399230957,0.545877993106842
1771525737060045000,6.014045166015625,0.44173020124435425,10.457274436950684,0.6272808313369751
1771525737070047700,6.0240478515625,-0.29568392038345337,10.28010368347168,0.5889736413955688
1771525737080050700,6.03405078125,-0.669179379940033,10.174758911132812,0.545877993106842
1771525737090053400,6.044053466796875,-0.7793126702308655,9.997588157653809,0.44532153010368347
1771525737100056000,6.05405615234375,-0.09457096457481384,9.715071678161621,0.2298433631658554
1771525737110058800,6.064058837890625,1.0019733905792236,9.322422981262207,-0.047884032130241394
1771525737120061400,6.0740615234375,1.9596540927886963,8.972869873046875,-0.272938996553421
1771525737130064100,6.084064208984375,2.519897222518921,8.599373817443848,-0.45010992884635925
1771525737140066800,6.09406689453125,2.5917234420776367,8.331223487854004,-0.6416460275650024
1771525737150069500,6.104069580078125,2.3953988552093506,8.130110740661621,-0.49799394607543945
1771525737160072200,6.114072265625,2.2613234519958496,7.790133953094482,-0.29209262132644653
1771525737170075000,6.124074951171875,2.227804660797119,7.641693115234375,-0.2537853717803955
1771525737180077600,6.13407763671875,2.275688648223877,7.459733963012695,-0.2537853717803955
1771525737190080300,6.144080322265625,2.227804660797119,7.263409614562988,-0.2298433631658554
1771525737200083000,6.1540830078125,2.1368250846862793,7.105391979217529,-0.17717093229293823
1771525737210086000,6.1640859375,2.01232647895813,6.909067630767822,0.004788403399288654
1771525737220088600,6.174088623046875,1.8399440050125122,6.83245325088501,0.09576806426048279
1771525737240094000,6.194093994140625,1.6340426206588745,6.980893611907959,0.3878606855869293
1771525737250096600,6.2040966796875,1.5430630445480347,6.9904704093933105,0.40222588181495667
1771525737260099300,6.214099365234375,1.4760253429412842,7.268198013305664,0.3447650372982025
1771525737270102000,6.22410205078125,1.5622166395187378,7.373542785644531,0.28730419278144836
1771525737280104700,6.234104736328125,1.6292542219161987,7.689577102661133,0.16759411990642548
1771525737290107400,6.244107421875,1.725022315979004,7.828441143035889,0.033518824726343155
1771525737300110000,6.254110107421875,1.7872716188430786,8.077438354492188,-0.2059013396501541
1771525737330118100,6.2841181640625,1.8543092012405396,8.958504676818848,-0.5889736413955688
1771525737340120800,6.294120849609375,1.92134690284729,9.226655006408691,-0.7134721279144287
1771525737350123500,6.30412353515625,2.007538080215454,9.643245697021484,-0.9097966551780701
1771525737360126200,6.314126220703125,2.0649988651275635,9.968857765197754,-0.9959878921508789
1771525737370129000,6.32412890625,2.0410568714141846,10.356718063354492,-1.0342950820922852
1771525737380131600,6.334131591796875,1.92134690284729,10.725424766540527,-1.1061211824417114
1771525737390134300,6.34413427734375,1.7920600175857544,11.137228012084961,-0.9911994934082031
1771525737400136700,6.35413671875,1.657984733581543,11.491569519042969,-0.9097966551780701
1771525737410139400,6.364139404296875,1.4472949504852295,11.960833549499512,-0.7565677165985107
1771525737420142000,6.37414208984375,2.007538080215454,12.219407081604004,-0.363918662071228
1771525737430144800,6.384144775390625,2.1511902809143066,12.420519828796387,-0.08619125932455063
1771525737440147500,6.3941474609375,2.2421698570251465,12.583325386047363,0.07661445438861847
1771525737450150100,6.404150146484375,2.4001872539520264,12.77964973449707,0.10055647045373917
1771525737460152800,6.41415283203125,2.103306293487549,12.904149055480957,0.33518823981285095
1771525737470155500,6.424155517578125,1.3994108438491821,13.119626998901367,0.6655880808830261
1771525737480158000,6.434157958984375,0.6619967818260193,13.268067359924316,1.2018892765045166
1771525737490160600,6.44416064453125,-0.03711012750864029,13.191452980041504,1.5897499322891235
1771525737500163300,6.454163330078125,-0.12330138683319092,13.04780101776123,1.3742717504501343
1771525737510166000,6.464166015625,0.4129997789859772,12.851475715637207,0.9672574996948242
1771525737520168700,6.474168701171875,1.3515268564224243,12.434885025024414,0.5746083855628967
1771525737530171400,6.48417138671875,2.404975652694702,12.056601524353027,0.043095629662275314
1771525737540174000,6.494174072265625,3.089717388153076,11.726201057434082,-0.2968810200691223
1771525737550176800,6.5041767578125,3.0178911685943604,11.424531936645508,-0.21547815203666687
1771525737560179200,6.51417919921875,3.2381577491760254,10.964845657348633,0.11971008777618408
1771525737570182000,6.524181884765625,0.7577648162841797,11.0701904296875,0.2777273952960968
1771525737580184600,6.5341845703125,-0.07062894850969315,10.7110595703125,0.8092401623725891
1771525737590187300,6.544187255859375,-0.27653029561042786,10.663175582885742,0.5219359993934631
1771525737600190000,6.55418994140625,-0.23822307586669922,10.351929664611816,0.19153612852096558
1771525737610192600,6.564192626953125,0.5135562419891357,10.184335708618164,-0.023942016065120697
1771525737620195300,6.5741953125,1.193509578704834,9.643245697021484,-0.28730419278144836
1771525737630198000,6.584197998046875,1.7537527084350586,9.130887031555176,-0.33039984107017517
1771525737650203100,6.604203125,2.539050817489624,8.110957145690918,-0.45010992884635925
1771525737660205800,6.614205810546875,2.8455088138580322,7.770980358123779,-0.4596867263317108
1771525737670208500,6.62420849609375,2.9460651874542236,7.469310760498047,-0.569819986820221
1771525737680211200,6.634211181640625,2.7066450119018555,7.1436991691589355,-0.35913026332855225
1771525737690214000,6.6442138671875,2.36188006401062,6.880337238311768,0.06224924325942993
1771525737700216600,6.654216552734375,1.964442491531372,6.602609634399414,0.2777273952960968
1771525737710219300,6.66421923828125,1.581370234489441,6.430227279663086,0.47884035110473633
1771525737720221700,6.6742216796875,1.0785878896713257,6.324882507324219,0.5315127968788147
1771525737730224400,6.684224365234375,0.7098808288574219,6.162076473236084,0.37828385829925537
1771525737740227000,6.69422705078125,0.5231330990791321,6.090250492095947,0.17717093229293823
1771525737750229800,6.704229736328125,0.28371289372444153,6.095038890838623,-0.090979665517807
1771525737760232400,6.714232421875,-0.013168109580874443,6.176441669464111,-0.40701428055763245
1771525737770235100,6.724235107421875,-0.06584054976701736,6.276998519897461,-0.608127236366272
1771525737780237800,6.73423779296875,0.10175357013940811,6.42543888092041,-0.6655880808830261
1771525737790240500,6.744240478515625,0.25019407272338867,6.64091682434082,-0.49799394607543945
1771525737800243000,6.754242919921875,0.46088382601737976,6.918644428253174,-0.3687070608139038
1771525737810245600,6.76424560546875,0.7386112213134766,7.186794757843018,-0.29209262132644653
1771525737820248300,6.774248291015625,0.7721300721168518,7.517194747924805,-0.05267243832349777
1771525737830251000,6.7842509765625,0.7912836670875549,7.8763251304626465,0.2537853717803955
1771525737840253700,6.794253662109375,0.910993754863739,8.221090316772461,0.4405331015586853
1771525737850256400,6.80425634765625,0.9636662006378174,8.680776596069336,0.5315127968788147
1771525737860259000,6.814259033203125,0.8966285586357117,9.135675430297852,0.7326257228851318
1771525737870261800,6.82426171875,0.9014169573783875,9.667187690734863,0.9911994934082031
1771525737880264400,6.834264404296875,0.7481880187988281,9.815628051757812,0.6703764796257019
1771525737890267100,6.84426708984375,1.1121066808700562,10.260950088500977,0.7948749661445618
1771525737900269800,6.854269775390625,1.3275848627090454,10.758943557739258,0.8858546018600464
1771525737910272500,6.8642724609375,1.3563152551651,10.902595520019531,0.6607996821403503
1771525737920275200,6.874275146484375,1.294066071510315,11.314398765563965,0.6607996821403503
1771525737930278000,6.88427783203125,1.279700756072998,11.596914291381836,0.49320554733276367
1771525737940280600,6.894280517578125,1.2461819648742676,11.946468353271484,0.47884035110473633
1771525737950283300,6.904283203125,1.2844891548156738,12.300809860229492,0.4884171485900879
1771525737960286000,6.914285888671875,1.5478514432907104,12.722188949584961,0.507570743560791
1771525737970288600,6.92428857421875,1.6148890256881714,12.999917030334473,0.545877993106842
1771525737980291300,6.934291259765625,1.5047557353973389,13.335104942321777,0.35913026332855225
1771525737990294300,6.944294189453125,0.9923965930938721,13.641562461853027,0.13407529890537262
1771525738000297000,6.954296875,0.4752490520477295,13.526640892028809,-0.05267243832349777
1771525738010299600,6.964299560546875,0.2645592987537384,13.32073974609375,-0.33997663855552673
1771525738020302300,6.97430224609375,0.6093243360519409,13.133992195129395,-0.5650315880775452
1771525738030305000,6.984304931640625,1.677138328552246,12.918514251708984,-0.6991068720817566
1771525738040307700,6.9943076171875,3.271676540374756,12.525864601135254,-0.689530074596405
1771525738050310400,7.004310302734375,5.072116374969482,12.032659530639648,-0.5793967843055725
1771525738060313000,7.01431298828125,6.206967830657959,11.721412658691406,-0.14365209639072418
1771525738070315800,7.024315673828125,5.881356239318848,11.41016674041748,0.6224924325942993
1771525738090321200,7.044321044921875,3.4392707347869873,10.873865127563477,0.9289502501487732
1771525738100323800,7.05432373046875,2.7976245880126953,10.916961669921875,0.9050082564353943
1771525738110326800,7.064326904296875,1.6531962156295776,10.2561616897583,0.9864110946655273
1771525738130332200,7.084332275390625,1.2653355598449707,10.213066101074219,0.014365210197865963
1771525738140334800,7.0943349609375,1.7393875122070312,9.810839653015137,-0.3974374830722809
1771525738150337500,7.104337646484375,2.342726469039917,9.446921348571777,-0.5602431893348694
1771525738160340200,7.11434033203125,2.764105796813965,9.06863784790039,-0.7422025203704834
1771525738170343000,7.124343017578125,2.8790276050567627,8.67598819732666,-0.7469909191131592
1771525738180345600,7.134345703125,2.807201385498047,8.326435089111328,-0.7996633648872375
1771525738190348300,7.144348388671875,2.5246856212615967,8.010400772094727,-0.790086567401886
1771525738200351000,7.15435107421875,2.208651065826416,7.7230963706970215,-0.6272808313369751
1771525738210353700,7.164353759765625,2.0697872638702393,7.464522361755371,-0.4165911078453064
1771525738230359000,7.184359130859375,1.8160020112991333,7.110180377960205,0.047884032130241394
1771525738240362000,7.194362060546875,1.7154455184936523,7.0575079917907715,0.11971008777618408
1771525738250364700,7.20436474609375,1.6675615310668945,7.023989200592041,0.10055647045373917
1771525738260367400,7.214367431640625,1.557428240776062,7.086238384246826,0.047884032130241394
1771525738270370000,7.2243701171875,1.413776159286499,7.196371555328369,-0.05267243832349777
1771525738280372700,7.234372802734375,1.380257248878479,7.3017168045043945,-0.12449848651885986
1771525738290375400,7.24437548828125,1.4329297542572021,7.387907981872559,-0.1867477297782898
1771525738300378000,7.254378173828125,1.5095441341400146,7.459733963012695,-0.11971008777618408
1771525738310380500,7.264380615234375,1.48081374168396,7.646481513977051,-0.08619125932455063
1771525738320383200,7.27438330078125,1.2988544702529907,7.842806339263916,0.028730420395731926
1771525738330386000,7.284385986328125,0.9923965930938721,8.024765968322754,0.15322890877723694
1771525738340388600,7.294388671875,0.8343793153762817,8.30249309539795,0.13407529890537262
1771525738350391300,7.304391357421875,0.9205705523490906,8.637681007385254,0.07661445438861847
1771525738360394000,7.31439404296875,1.2509703636169434,9.025542259216309,-0.038307227194309235
1771525738370396700,7.324396728515625,1.7106571197509766,9.49001693725586,-0.13407529890537262
1771525738380399400,7.3343994140625,2.2182278633117676,9.892242431640625,-0.15801730751991272
1771525738390401800,7.34440185546875,2.6587610244750977,10.241796493530273,-0.28730419278144836
1771525738400404500,7.354404541015625,2.8598740100860596,10.49558162689209,-0.40222588181495667
1771525738410407200,7.3644072265625,2.764105796813965,10.80203914642334,-0.49320554733276367
1771525738420409900,7.374409912109375,2.4384944438934326,11.122862815856934,-0.4357447028160095
1771525738430412500,7.38441259765625,1.9500772953033447,11.43410873413086,-0.22026655077934265
1771525738440415200,7.394415283203125,1.6484078168869019,11.735777854919434,-0.05746084079146385
1771525738450418000,7.40441796875,1.6101006269454956,11.994352340698242,0.06703764945268631
1771525738460420600,7.414420654296875,1.7872716188430786,12.152369499206543,0.08140286058187485
1771525738470423000,7.424423095703125,2.2900538444519043,12.334328651428223,0.05746084079146385
1771525738480425700,7.43442578125,2.6874914169311523,12.492345809936523,-0.038307227194309235
1771525738490428400,7.444428466796875,2.476801633834839,12.650362968444824,0.1388636976480484
1771525738500431000,7.45443115234375,1.4760253429412842,12.683881759643555,0.5363011956214905
1771525738510433800,7.464433837890625,0.14484919607639313,12.583325386047363,1.0869675874710083
1771525738520436500,7.4744365234375,-0.7218518257141113,12.401366233825684,1.41257905960083
1771525738530439200,7.484439208984375,-0.5207388401031494,12.214618682861328,1.216254472732544
1771525738540441900,7.49444189453125,0.7433996200561523,11.932103157043457,0.646434485912323
1771525738550444500,7.504444580078125,2.625242233276367,11.53466510772705,-0.038307227194309235
1771525738560447000,7.514447021484375,4.377797603607178,11.142016410827637,-0.49320554733276367
1771525738570449700,7.52444970703125,5.340266704559326,10.797250747680664,-0.45489832758903503
1771525738580452400,7.534452392578125,5.163095951080322,10.466851234436035,-0.043095629662275314
1771525738590455000,7.544455078125,4.128800868988037,10.179547309875488,0.44532153010368347
1771525738600457700,7.554457763671875,2.8646624088287354,9.94970417022705,0.8427590131759644
1771525738610460400,7.56446044921875,1.677138328552246,9.729436874389648,0.9241618514060974
1771525738620463000,7.574463134765625,0.8535329103469849,9.700706481933594,0.7709329724311829
1771525738630465800,7.5844658203125,0.29807811975479126,9.49001693725586,0.6177040338516235
1771525738640468200,7.59446826171875,0.27413609623908997,9.245808601379395,0.22026655077934265
1771525738650471000,7.604470947265625,0.8391677141189575,8.948927879333496,-0.3064578175544739
1771525738660473600,7.6144736328125,1.624465823173523,8.58500862121582,-0.5650315880775452
1771525738670476300,7.624476318359375,2.433706045150757,8.307281494140625,-0.6991068720817566
1771525738680479000,7.63447900390625,2.8119897842407227,8.06307315826416,-0.6033388376235962
1771525738690481700,7.644481689453125,2.802412986755371,7.842806339263916,-0.38307225704193115
1771525738700484400,7.654484375,2.653972625732422,7.589020729064941,-0.05746084079146385
1771525738710487000,7.664487060546875,2.433706045150757,7.359177589416504,0.22026655077934265
1771525738720489500,7.674489501953125,2.1990742683410645,7.234679222106934,0.2585737705230713
1771525738730492200,7.6844921875,2.01232647895813,7.17242956161499,0.24899697303771973
1771525738740494800,7.694494873046875,1.8590975999832153,7.0575079917907715,0.31124621629714966
1771525738750497500,7.70449755859375,1.7872716188430786,6.995258808135986,0.3878606855869293
1771525738760500200,7.714500244140625,1.7537527084350586,6.966528415679932,0.4213795065879822
1771525738770503000,7.7245029296875,1.6388310194015503,6.971316814422607,0.33039984107017517
1771525738780505600,7.734505615234375,1.5478514432907104,6.995258808135986,0.2346317619085312
1771525738790508300,7.74450830078125,1.380257248878479,7.033565998077393,0.19153612852096558
1771525738810513400,7.764513427734375,0.8774749040603638,7.344812393188477,0.19632454216480255
1771525738820516000,7.77451611328125,0.5949591398239136,7.641693115234375,0.19153612852096558
1771525738830518800,7.784518798828125,0.32680854201316833,7.957727909088135,0.3016694188117981
1771525738840521500,7.794521484375,0.34596213698387146,8.27855110168457,0.363918662071228
1771525738850524200,7.804524169921875,0.6619967818260193,8.695141792297363,0.40222588181495667
1771525738860526800,7.81452685546875,0.9971849918365479,9.135675430297852,0.5027823448181152
1771525738870529500,7.824529541015625,1.3419500589370728,9.485228538513184,0.545877993106842
1771525738880532000,7.834531982421875,1.744175910949707,9.777320861816406,0.6033388376235962
1771525738890534700,7.84453466796875,2.160767078399658,10.016741752624512,0.6560112833976746
1771525738900537300,7.854537353515625,2.3762452602386475,10.265738487243652,0.6224924325942993
1771525738910540000,7.8645400390625,2.36188006401062,10.476428031921387,0.6799532771110535
1771525738920542700,7.874542724609375,2.2230162620544434,10.749366760253906,0.5985504388809204
1771525738930545400,7.88454541015625,1.9548656940460205,11.108497619628906,0.37828385829925537
1771525738940548000,7.894548095703125,1.6340426206588745,11.386224746704102,0.31124621629714966
1771525738950550800,7.90455078125,1.6053122282028198,11.702259063720703,0.20111294090747833
1771525738960553200,7.91455322265625,1.9835960865020752,12.080543518066406,0.07661445438861847
1771525738970556000,7.924555908203125,2.227804660797119,12.477980613708496,0.17238251864910126
1771525738980558600,7.93455859375,2.472013235092163,12.8131685256958,0.3734954595565796
1771525738990561300,7.944561279296875,2.3523032665252686,13.19624137878418,0.4644751250743866
1771525739000564000,7.95456396484375,1.8734627962112427,13.359046936035156,0.5889736413955688
1771525739010566700,7.964566650390625,1.2844891548156738,13.387777328491211,0.7709329724311829
1771525739020569300,7.9745693359375,0.829590916633606,13.153145790100098,0.5410895943641663
1771525739030572000,7.984572021484375,1.1743559837341309,12.937667846679688,0.22505496442317963
1771525739040574700,7.99457470703125,2.342726469039917,12.34869384765625,-0.019153613597154617
1771525739050577400,8.004577392578126,4.0330328941345215,11.730989456176758,-0.363918662071228
1771525739060580000,8.014580078125,5.4025163650512695,11.113286018371582,-0.6368576288223267
1771525739080585500,8.03458544921875,5.230133533477783,10.323199272155762,-0.3064578175544739
1771525739090588200,8.044588134765625,3.7169981002807617,10.102932929992676,0.13407529890537262
1771525739100590800,8.0545908203125,2.275688648223877,9.959280967712402,0.5171475410461426
1771525739110593500,8.064593505859374,1.0067617893218994,9.901819229125977,0.8523358106613159
1771525739120596200,8.07459619140625,0.19273324310779572,9.925761222839355,0.8427590131759644
1771525739130599000,8.084598876953125,0.32202014327049255,9.729436874389648,0.4596867263317108
1771525739140601600,8.0946015625,1.217451572418213,9.403825759887695,-0.004788403399288654
1771525739150604500,8.1046044921875,2.275688648223877,8.9680814743042,-0.5841852426528931
1771525739160607200,8.114607177734374,3.1088709831237793,8.647257804870605,-1.091755986213684
1771525739170610000,8.12460986328125,3.7696704864501953,8.316858291625977,-1.3072341680526733
1771525739180612600,8.134612548828125,3.889380693435669,7.957727909088135,-0.9672574996948242
1771525739190615300,8.144615234375,3.4775779247283936,7.665635108947754,-0.569819986820221
1771525739200618000,8.154617919921876,2.8455088138580322,7.464522361755371,-0.3256114423274994
1771525739210620700,8.16462060546875,2.3523032665252686,7.234679222106934,-0.05267243832349777
1771525739220623400,8.174623291015624,1.9835960865020752,7.062296390533447,0.1867477297782898
1771525739230626000,8.1846259765625,1.7585411071777344,6.942586421966553,0.23942017555236816
1771525739240628700,8.194628662109375,1.768117904663086,6.880337238311768,0.1867477297782898
1771525739250631400,8.20463134765625,1.8734627962112427,6.870760440826416,0
1771525739260634000,8.214634033203126,2.031480073928833,6.899490833282471,-0.19632454216480255
1771525739270636800,8.22463671875,2.1559786796569824,7.004835605621338,-0.33039984107017517
1771525739280639700,8.2346396484375,2.031480073928833,7.105391979217529,-0.3926490843296051
1771525739290642400,8.244642333984375,1.8543092012405396,7.162852764129639,-0.4118026793003082
1771525739300645000,8.25464501953125,1.6915035247802734,7.27298641204834,-0.33039984107017517
1771525739310647800,8.264647705078126,1.4520833492279053,7.3687543869018555,-0.26336219906806946
1771525739320650500,8.274650390625,1.337161660194397,7.550713539123535,-0.3064578175544739
1771525739330653200,8.284653076171875,1.294066071510315,7.761403560638428,-0.272938996553421
1771525739340655900,8.29465576171875,1.169567584991455,8.077438354492188,-0.2346317619085312
1771525739350658600,8.304658447265625,1.2988544702529907,8.379107475280762,-0.33997663855552673
1771525739360661200,8.3146611328125,1.6101006269454956,8.829216957092285,-0.40701428055763245
1771525739370664000,8.324663818359374,1.8399440050125122,9.245808601379395,-0.4213795065879822
1771525739380666600,8.33466650390625,1.9979612827301025,9.79647445678711,-0.47884035110473633
1771525739390669300,8.34466943359375,2.2038626670837402,10.28010368347168,-0.5363011956214905
1771525739400672000,8.354672119140625,2.448071241378784,10.720636367797852,-0.6033388376235962
1771525739420677400,8.374677490234374,2.539050817489624,11.630433082580566,-0.6512228846549988
1771525739430680000,8.38468017578125,2.428917646408081,11.989563941955566,-0.3734954595565796
1771525739440682500,8.3946826171875,2.36188006401062,12.25771427154541,-0.08140286058187485
1771525739450685200,8.404685302734375,2.649184226989746,12.468403816223145,0.12928688526153564
1771525739460688000,8.41468798828125,3.027467966079712,12.578536987304688,0.31603461503982544
1771525739470690600,8.424690673828126,3.6355953216552734,12.640786170959473,0.4405331015586853
1771525739480693200,8.434693359375,3.951629877090454,12.80359172821045,0.3734954595565796
1771525739490696000,8.444696044921875,3.491943120956421,12.952033042907715,0.3974374830722809
1771525739500698600,8.45469873046875,2.184709072113037,13.086108207702637,0.6416460275650024
1771525739510701300,8.464701416015625,0.4129997789859772,13.268067359924316,1.115697979927063
1771525739520703700,8.474703857421876,-0.970848798751831,13.248913764953613,1.4652514457702637
1771525739530706400,8.48470654296875,-1.0043675899505615,13.16272258758545,1.4269442558288574
1771525739540709000,8.494709228515624,0.11133038252592087,12.894572257995605,0.8331822156906128
1771525739550711800,8.5047119140625,2.0458452701568604,12.296021461486816,0.272938996553421
1771525739560714500,8.514714599609375,4.162319660186768,11.711835861206055,-0.20111294090747833
1771525739570717200,8.52471728515625,5.828683853149414,11.03667163848877,-0.4357447028160095
1771525739580719900,8.534719970703126,6.384139060974121,10.486004829406738,0.023942016065120697
1771525739590722600,8.54472265625,5.74249267578125,10.078990936279297,0.6655880808830261
1771525739600725000,8.55472509765625,4.36343240737915,9.853935241699219,1.1492167711257935
1771525739610727700,8.564727783203125,2.8215668201446533,9.662399291992188,1.335964560508728
1771525739620730400,8.57473046875,1.4281413555145264,9.566631317138672,1.436521053314209
1771525739630733000,8.584733154296876,0.5135562419891357,9.475651741027832,1.3311761617660522
1771525739640735700,8.59473583984375,0.19273324310779572,9.202713012695312,0.9911994934082031
1771525739650738400,8.604738525390625,0.5518634915351868,8.862735748291016,0.3208230137825012
1771525739660741000,8.6147412109375,1.3275848627090454,8.508394241333008,-0.3208230137825012
1771525739670743800,8.624743896484375,2.103306293487549,8.168417930603027,-0.7374141216278076
1771525739680746200,8.634746337890626,2.6396074295043945,7.680000305175781,-0.8954314589500427
1771525739690749000,8.6447490234375,2.8790276050567627,7.387907981872559,-0.8236053586006165
1771525739700751600,8.654751708984374,2.7305870056152344,7.1006035804748535,-0.6177040338516235
1771525739710754300,8.66475439453125,2.3810336589813232,6.856395244598389,-0.38307225704193115
1771525739720757000,8.674757080078125,2.0602104663848877,6.559514045715332,0.038307227194309235
1771525739730759700,8.684759765625,1.6101006269454956,6.248267650604248,0.4165911078453064
1771525739740762400,8.694762451171876,1.3036428689956665,6.224325656890869,0.40701428055763245
1771525739750765000,8.70476513671875,1.212663173675537,6.142922878265381,0.43095630407333374
1771525739760767500,8.714767578125,1.4281413555145264,6.133346080780029,0.35913026332855225
1771525739770770200,8.724770263671875,1.7585411071777344,6.181230068206787,0.33039984107017517
1771525739780772900,8.73477294921875,1.902193307876587,6.1285576820373535,0.3064578175544739
1771525739790775600,8.744775634765626,2.031480073928833,6.214748859405518,0.31603461503982544
1771525739800778200,8.7547783203125,1.7920600175857544,6.310517311096191,0.363918662071228
1771525739810781000,8.764781005859374,1.3323732614517212,6.5499372482299805,0.31124621629714966
1771525739820783600,8.77478369140625,0.8152256608009338,6.789357662200928,0.3974374830722809
1771525739830786300,8.784786376953125,0.3411737382411957,7.091026782989502,0.5027823448181152
1771525739840788700,8.794788818359375,-0.12330138683319092,7.598597526550293,0.5171475410461426
1771525739850791400,8.80479150390625,-0.4920084476470947,8.09659194946289,0.5410895943641663
1771525739860794000,8.814794189453124,-0.4297592043876648,8.70950698852539,0.3974374830722809
1771525739870796800,8.824796875,0.08738835901021957,9.236231803894043,0.14365209639072418
1771525739880799500,8.834799560546875,0.8200140595436096,9.77253246307373,0.07182604819536209
1771525739890802200,8.84480224609375,1.6101006269454956,10.2561616897583,0.05746084079146385
1771525739900804900,8.854804931640626,2.409764051437378,10.610503196716309,0.11013327538967133
1771525739910807600,8.8648076171875,2.917334794998169,10.940903663635254,0.24420857429504395
1771525739920810000,8.87481005859375,2.9316999912261963,11.151593208312988,0.6847416758537292
1771525739930812700,8.884812744140625,2.6635494232177734,11.438897132873535,1.1061211824417114
1771525739940815400,8.8948154296875,2.4815900325775146,11.64958667755127,1.278503656387329
1771525739950818000,8.904818115234375,2.232593059539795,11.970410346984863,1.50355863571167
1771525739960820700,8.91482080078125,2.0889410972595215,12.114062309265137,1.5658079385757446
1771525739970823400,8.924823486328124,2.390610456466675,12.454038619995117,1.259350061416626
1771525739980826000,8.934826171875,2.653972625732422,12.683881759643555,1.048660397529602
1771525739990828800,8.944828857421875,2.9891607761383057,12.913725852966309,1.0247182846069336
1771525740000831200,8.954831298828125,3.0561983585357666,13.215394973754883,0.9672574996948242
1771525740020836600,8.974836669921874,1.2461819648742676,13.521852493286133,0.5363011956214905
1771525740030839300,8.98483935546875,0.6811503767967224,13.488333702087402,0.16759411990642548
1771525740040842000,8.994842041015625,0.8774749040603638,13.22976016998291,-0.1388636976480484
1771525740050844700,9.0048447265625,1.9405004978179932,12.817956924438477,-0.5985504388809204
1771525740060847400,9.014847412109376,3.645172119140625,12.233772277832031,-1.1683704853057861
1771525740070850000,9.02485009765625,5.076904773712158,11.616067886352539,-1.2210428714752197
1771525740080852500,9.0348525390625,5.474342346191406,11.165958404541016,-0.8427590131759644
1771525740090855200,9.044855224609375,5.043385982513428,10.811615943908691,-0.3974374830722809
1771525740100857900,9.05485791015625,4.23893404006958,10.600926399230957,0.009576806798577309
1771525740110860500,9.064860595703125,3.3865983486175537,10.43812084197998,0.33997663855552673
1771525740120863200,9.07486328125,2.519897222518921,10.270526885986328,0.6177040338516235
1771525740130866000,9.084865966796874,1.9740192890167236,10.179547309875488,0.6177040338516235
1771525740140868600,9.09486865234375,1.8399440050125122,9.97364616394043,0.363918662071228
1771525740150871300,9.104871337890625,2.1368250846862793,9.719860076904297,0.090979665517807
1771525740160873700,9.114873779296875,2.6204538345336914,9.327211380004883,-0.14844051003456116
1771525740170876400,9.12487646484375,3.1280245780944824,8.905831336975098,-0.5027823448181152
1771525740180879000,9.134879150390624,3.5063083171844482,8.58500862121582,-0.9050082564353943
1771525740190881800,9.1448818359375,3.578134536743164,8.177994728088379,-0.9672574996948242
1771525740200884500,9.154884521484375,3.156754970550537,7.814075946807861,-0.7134721279144287
1771525740210887200,9.16488720703125,2.4576480388641357,7.48846435546875,-0.33039984107017517
1771525740220889900,9.174889892578125,1.8160020112991333,7.1436991691589355,0.028730420395731926
1771525740230892500,9.184892578125,1.404199242591858,6.842030048370361,0.3926490843296051
1771525740240895000,9.19489501953125,1.2892776727676392,6.554725646972656,0.6607996821403503
1771525740250897700,9.204897705078125,1.3036428689956665,6.3967084884643555,0.7757213711738586
1771525740260900400,9.214900390625,1.1887211799621582,6.33445930480957,0.8858546018600464
1771525740270903000,9.224903076171875,1.2988544702529907,6.358401298522949,0.9433154463768005
1771525740280905700,9.23490576171875,1.1647791862487793,6.387131690979004,0.8906430602073669
1771525740290908400,9.244908447265624,1.07379949092865,6.684012413024902,0.7326257228851318
1771525740300911000,9.2549111328125,1.0594342947006226,6.770204067230225,0.5363011956214905
1771525740310913800,9.264913818359375,1.1121066808700562,6.980893611907959,0.44532153010368347
1771525740320916200,9.274916259765625,1.159990668296814,7.129333972930908,0.5027823448181152
1771525740330919000,9.2849189453125,1.0977414846420288,7.378331184387207,0.4213795065879822
1771525740340921600,9.294921630859376,1.1839327812194824,7.699153900146484,0.19632454216480255
1771525740350924300,9.30492431640625,1.3467384576797485,8.067861557006836,-0.023942016065120697
1771525740360927000,9.314927001953125,1.4329297542572021,8.450933456420898,-0.1388636976480484
1771525740370929700,9.3249296875,1.7202339172363281,8.848370552062988,-0.2537853717803955
1771525740380932400,9.334932373046875,2.0410568714141846,9.212289810180664,-0.4213795065879822
1771525740390935000,9.34493505859375,2.227804660797119,9.61451530456543,-0.37828385829925537
1771525740400937500,9.3549375,2.2469582557678223,10.021530151367188,-0.35434186458587646
1771525740410940200,9.364940185546875,2.189497470855713,10.466851234436035,-0.47884035110473633
1771525740420942800,9.37494287109375,2.1751322746276855,11.017518043518066,-0.47405192255973816
1771525740430945500,9.384945556640625,2.1703438758850098,11.462839126586914,-0.26336219906806946
1771525740440948200,9.3949482421875,2.428917646408081,11.936891555786133,0.014365210197865963
1771525740450951000,9.404950927734374,2.4863784313201904,12.29123306274414,0.3208230137825012
1771525740460953600,9.41495361328125,2.653972625732422,12.501922607421875,0.5602431893348694
1771525740470956300,9.424956298828125,2.936488389968872,12.74613094329834,0.790086567401886
1771525740480958700,9.434958740234375,3.0370447635650635,13.038224220275879,1.0678139925003052
1771525740490961400,9.44496142578125,2.764105796813965,13.402142524719238,1.3407529592514038
1771525740500964000,9.454964111328126,2.1511902809143066,13.699023246765137,1.6711528301239014
1771525740510966800,9.464966796875,1.48081374168396,13.794791221618652,2.097320795059204
1771525740520969500,9.474969482421875,1.1743559837341309,13.766060829162598,2.145204782485962
1771525740530972200,9.48497216796875,1.2413935661315918,13.574524879455566,1.7094600200653076
1771525740540974800,9.494974853515625,1.8830395936965942,12.990340232849121,1.0438719987869263
1771525740550977500,9.5049775390625,3.400963544845581,12.238560676574707,0.43095630407333374
1771525740560980000,9.51497998046875,4.947618007659912,11.323975563049316,0.05746084079146385
1771525740570982700,9.524982666015624,5.594052314758301,10.600926399230957,0.028730420395731926
1771525740580985300,9.5349853515625,5.009867191314697,10.18912410736084,0.3734954595565796
1771525740590988000,9.544988037109375,3.5158851146698,10.04068374633789,0.9959878921508789
1771525740600990700,9.55499072265625,1.8782511949539185,9.806051254272461,1.50355863571167
1771525740610993400,9.564993408203126,0.5279214978218079,9.676764488220215,1.7525556087493896
1771525740620996000,9.57499609375,-0.4537012279033661,9.68155288696289,1.7142484188079834
1771525740630998800,9.584998779296875,-0.7553706169128418,9.513958930969238,1.6136919260025024
1771525740641001500,9.59500146484375,-0.48722004890441895,9.221866607666016,1.3455413579940796
1771525740651004000,9.60500390625,0.39863458275794983,8.843582153320312,0.727837324142456
1771525740661006600,9.615006591796876,1.5526398420333862,8.470087051391602,0.10055647045373917
1771525740671009300,9.62500927734375,2.6443958282470703,8.010400772094727,-0.2106897532939911
1771525740681012000,9.635011962890625,3.5254619121551514,7.665635108947754,-0.16759411990642548
1771525740691014700,9.6450146484375,3.822343111038208,7.311293601989746,0.12928688526153564
1771525740701017300,9.655017333984375,3.712209701538086,7.000047206878662,0.5315127968788147
1771525740711020000,9.66502001953125,3.362656354904175,6.755838871002197,0.8331822156906128
1771525740721022700,9.675022705078124,2.936488389968872,6.578667640686035,1.0055646896362305
1771525740731025400,9.685025390625,2.5438392162323,6.444592475891113,1.1492167711257935
1771525740741028000,9.695028076171875,2.050633668899536,6.430227279663086,1.0630255937576294
1771525740751030800,9.70503076171875,1.643619418144226,6.487688064575195,0.7757213711738586
1771525740761033500,9.715033447265625,1.4233529567718506,6.540360450744629,0.43095630407333374
1771525740771036400,9.725036376953126,1.4520833492279053,6.679224014282227,0.11971008777618408
1771525740781039000,9.7350390625,1.581370234489441,6.746262073516846,0.004788403399288654
1771525740791041800,9.745041748046875,1.7729063034057617,7.009624004364014,-0.12928688526153564
1771525740801044500,9.75504443359375,1.7824832201004028,7.215525150299072,-0.1149216815829277
1771525740811047200,9.765047119140625,1.7585411071777344,7.421426773071289,-0.019153613597154617
1771525740821049900,9.7750498046875,1.557428240776062,7.7230963706970215,-0.019153613597154617
1771525740831052500,9.785052490234374,1.3658920526504517,7.938574314117432,-0.009576806798577309
1771525740841055200,9.79505517578125,1.2461819648742676,8.33601188659668,-0.06224924325942993
1771525740851058000,9.805057861328125,1.1982979774475098,8.508394241333008,-0.009576806798577309
1771525740861060600,9.815060546875,1.380257248878479,8.786121368408203,0.06703764945268631
1771525740871063300,9.825063232421876,1.4281413555145264,9.083003044128418,0.2346317619085312
1771525740881066000,9.83506591796875,1.3658920526504517,9.346364974975586,0.5554547905921936
1771525740891068700,9.845068603515625,1.437718152999878,9.686341285705566,0.7852981686592102
1771525740901071600,9.855071533203125,1.3754688501358032,9.94970417022705,1.072602391242981
1771525740911074300,9.86507421875,1.2557587623596191,10.275315284729004,1.139639973640442
1771525740921077000,9.875076904296876,1.169567584991455,10.591349601745605,1.0247182846069336
1771525740931079700,9.88507958984375,0.9205705523490906,10.974422454833984,0.8523358106613159
1771525740941082400,9.895082275390624,0.8008604645729065,11.266514778137207,0.6703764796257019
1771525740951085000,9.9050849609375,0.8104372620582581,11.481992721557617,0.37828385829925537
1771525740971090400,9.92509033203125,1.2270283699035645,12.142792701721191,-0.009576806798577309
1771525740981093000,9.935093017578126,1.3180080652236938,12.588113784790039,0.05267243832349777
1771525740991095800,9.945095703125,1.1073182821273804,13.04780101776123,0.08619125932455063
1771525741001098500,9.955098388671875,0.729034423828125,13.22976016998291,0.22505496442317963
1771525741011101200,9.96510107421875,0.628477931022644,13.335104942321777,0.5315127968788147
1771525741021103600,9.975103515625,1.0402805805206299,13.220183372497559,0.6224924325942993
1771525741031106300,9.985106201171876,2.3523032665252686,12.932879447937012,0.3447650372982025
1771525741041109000,9.99510888671875,4.262876033782959,12.401366233825684,-0.2346317619085312
1771525741051111700,10.005111572265625,5.9771246910095215,11.702259063720703,-0.569819986820221
1771525741061114400,10.0151142578125,6.776787757873535,11.065402030944824,-0.5841852426528931
1771525741071117000,10.025116943359375,6.432023048400879,10.687117576599121,-0.33039984107017517
1771525741081119700,10.03511962890625,5.163095951080322,10.567407608032227,0.004788403399288654
1771525741091122400,10.045122314453126,3.3722331523895264,10.696694374084473,0.28730419278144836
1771525741101124900,10.055124755859374,1.7345991134643555,10.672752380371094,0.5937620401382446
1771525741111127600,10.06512744140625,0.7769184708595276,10.667963981628418,0.6655880808830261
1771525741121130200,10.075130126953125,0.7433996200561523,10.581772804260254,0.5171475410461426
1771525741141135600,10.095135498046876,1.8160020112991333,9.882665634155273,-0.23942017555236816
1771525741151138300,10.10513818359375,2.337938070297241,9.384672164916992,-0.6272808313369751
1771525741161141000,10.11514111328125,2.45285964012146,8.848370552062988,-0.8092401623725891
1771525741171143700,10.125143798828125,2.5677812099456787,8.470087051391602,-0.727837324142456
1771525741181146000,10.13514599609375,2.630030632019043,8.077438354492188,-0.4165911078453064
1771525741191148800,10.145148681640626,2.491166830062866,7.589020729064941,-0.09576806426048279
1771525741201151500,10.1551513671875,2.098517894744873,7.316082000732422,0.16759411990642548
1771525741211154200,10.165154296875,1.6867151260375977,7.095815181732178,0.3256114423274994
1771525741221156900,10.175156982421875,1.5143325328826904,6.875548839569092,0.4644751250743866
1771525741231159600,10.18515966796875,1.600523829460144,6.712742805480957,0.5027823448181152
1771525741241162200,10.195162353515625,1.744175910949707,6.5930328369140625,0.4884171485900879
1771525741251165000,10.2051650390625,1.88782799243927,6.545148849487305,0.4405331015586853
1771525741261167600,10.215167724609374,1.9835960865020752,6.51641845703125,0.2968810200691223
1771525741271170000,10.225170166015625,1.92134690284729,6.492476463317871,0.3926490843296051
1771525741281172700,10.2351728515625,1.7729063034057617,6.468534469604492,0.4644751250743866
1771525741291175400,10.245175537109375,1.3611036539077759,6.497264862060547,0.4118026793003082
1771525741301178000,10.25517822265625,0.9923965930938721,6.655282020568848,0.24420857429504395
1771525741311180800,10.265180908203124,0.8678981065750122,6.83245325088501,0.16759411990642548
1771525741321183500,10.27518359375,0.7960720658302307,7.0575079917907715,0
1771525741331186200,10.285186279296875,0.7050924301147461,7.392696380615234,-0.22026655077934265
1771525741341188900,10.29518896484375,0.7481880187988281,7.742249965667725,-0.42616790533065796
1771525741351191300,10.30519140625,1.035492181777954,8.283339500427246,-0.5602431893348694
1771525741361194000,10.315194091796876,1.533486247062683,8.776544570922852,-0.6655880808830261
1771525741371196700,10.32519677734375,2.0410568714141846,9.2841157913208,-0.7230489253997803
1771525741381199400,10.335199462890625,2.3331496715545654,9.715071678161621,-0.5793967843055725
1771525741391202000,10.3452021484375,2.3044190406799316,10.198700904846191,-0.4165911078453064
1771525741401204700,10.355204833984375,2.103306293487549,10.735001564025879,-0.08619125932455063
1771525741411207400,10.36520751953125,1.7824832201004028,11.34312915802002,0.2106897532939911
1771525741421210000,10.375210205078124,1.7537527084350586,11.826757431030273,0.2777273952960968
1771525741431212500,10.385212646484375,1.8926163911819458,12.209830284118652,0.3256114423274994
1771525741441215200,10.39521533203125,2.299630641937256,12.545018196105957,0.181959331035614
1771525741451218000,10.405218017578125,2.7736825942993164,12.717400550842285,0.181959331035614
1771525741461220600,10.415220703125,3.4105403423309326,12.726977348327637,0.2106897532939911
1771525741471223300,10.425223388671874,3.8127663135528564,12.717400550842285,0.23942017555236816
1771525741481226000,10.43522607421875,3.4392707347869873,12.932879447937012,0.3926490843296051
1771525741491228700,10.445228759765625,2.1080946922302246,13.028647422790527,0.689530074596405
1771525741501231400,10.4552314453125,0.5135562419891357,13.239336967468262,1.1875240802764893
1771525741511233800,10.46523388671875,-0.6643909811973572,13.296797752380371,1.6328455209732056
1771525741521236500,10.475236572265626,-0.9756371974945068,13.268067359924316,1.4077905416488647
1771525741531239200,10.4852392578125,0.27413609623908997,12.894572257995605,0.5123591423034668
1771525741541241900,10.495241943359375,2.7018566131591797,12.233772277832031,-0.47405192255973816
1771525741551244500,10.50524462890625,5.129577159881592,11.46762752532959,-0.7757213711738586
1771525741561247200,10.515247314453125,6.27400541305542,10.773308753967285,-0.4692635238170624
1771525741571250000,10.52525,5.814318656921387,10.433332443237305,0.4644751250743866
1771525741581252600,10.535252685546874,4.305971622467041,10.232219696044922,1.5849615335464478
1771525741591255000,10.545255126953125,2.764105796813965,10.237008094787598,2.121262788772583
1771525741601257700,10.5552578125,1.5717934370040894,10.227431297302246,2.346317768096924
1771525741611260400,10.565260498046875,0.9971849918365479,10.241796493530273,2.298433542251587
1771525741621263000,10.57526318359375,1.092953085899353,10.06462574005127,1.7717092037200928
1771525741631265800,10.585265869140626,1.6819267272949219,9.662399291992188,0.8667010068893433
1771525741641268500,10.5952685546875,2.337938070297241,9.164405822753906,0.22026655077934265
1771525741651271200,10.605271240234375,2.89339280128479,8.599373817443848,-0.11971008777618408
1771525741661273900,10.61527392578125,3.2381577491760254,8.24503231048584,-0.3016694188117981
1771525741671276300,10.6252763671875,3.1950621604919434,7.737461566925049,-0.363918662071228
1771525741681279000,10.635279052734376,3.0418331623077393,7.545925140380859,-0.181959331035614
1771525741691281700,10.64528173828125,2.960430383682251,7.162852764129639,-0.009576806798577309
1771525741701284400,10.655284423828125,2.448071241378784,7.071873188018799,0.06224924325942993
1771525741711287000,10.665287109375,1.8974047899246216,6.875548839569092,0.13407529890537262
1771525741731292400,10.68529248046875,1.6627731323242188,6.60739803314209,0.1628057211637497
1771525741741295000,10.695295166015624,1.7537527084350586,6.545148849487305,0.13407529890537262
1771525741751297500,10.705297607421874,1.6053122282028198,6.487688064575195,0.1867477297782898
1771525741761300200,10.71530029296875,1.3898340463638306,6.545148849487305,0.16759411990642548
1771525741771303000,10.725302978515625,1.3036428689956665,6.684012413024902,0
1771525741781305600,10.7353056640625,1.523909330368042,6.870760440826416,0.038307227194309235
1771525741791308300,10.745308349609376,1.7298107147216797,7.091026782989502,0.1867477297782898
1771525741801311000,10.75531103515625,1.7393875122070312,7.316082000732422,0.4357447028160095
1771525741811313700,10.765313720703125,1.643619418144226,7.541136741638184,0.5363011956214905
1771525741821316400,10.77531640625,1.5191209316253662,7.814075946807861,0.4596867263317108
1771525741831318800,10.78531884765625,1.499967336654663,8.125322341918945,0.40701428055763245
1771525741841321500,10.795321533203126,1.868674397468567,8.412626266479492,0.3447650372982025
1771525741851324200,10.80532421875,2.2613234519958496,8.752602577209473,0.2777273952960968
1771525741861326800,10.815326904296874,2.390610456466675,9.083003044128418,0.2059013396501541
1771525741871329500,10.82532958984375,2.256535053253174,9.346364974975586,0.3256114423274994
1771525741881332200,10.835332275390625,2.141613483428955,9.5809965133667,0.40701428055763245
1771525741891335000,10.8453349609375,1.9835960865020752,9.873088836669922,0.5171475410461426
1771525741901337600,10.855337646484376,1.844732403755188,10.18912410736084,0.6751648783683777
1771525741911340000,10.865340087890624,1.88782799243927,10.548254013061523,0.5985504388809204
1771525741921342700,10.8753427734375,2.2038626670837402,10.955268859863281,0.5650315880775452
1771525741931345400,10.885345458984375,2.586935043334961,11.496357917785645,0.5363011956214905
1771525741941348000,10.89534814453125,2.697068214416504,11.55860710144043,0.004788403399288654
1771525741951350800,10.905350830078126,2.874239206314087,11.989563941955566,0.2777273952960968
1771525741961353500,10.915353515625,3.199850559234619,12.219407081604004,0.2777273952960968
1771525741971356200,10.925356201171875,3.400963544845581,12.511499404907227,0.363918662071228
1771525741981358800,10.93535888671875,3.070563793182373,12.908937454223633,0.3734954595565796
1771525741991361300,10.945361328125,2.1272482872009277,13.296797752380371,0.5123591423034668
1771525742001364000,10.955364013671876,0.8152256608009338,13.622408866882324,0.8140285611152649
1771525742011366700,10.96536669921875,-0.1759738177061081,13.7852144241333,0.9433154463768005
1771525742021369300,10.975369384765624,-0.23343466222286224,13.454814910888672,0.5363011956214905
1771525742031372000,10.9853720703125,0.9971849918365479,13.258490562438965,0.26336219906806946
1771525742041374700,10.995374755859375,3.204638957977295,12.612055778503418,-0.047884032130241394
1771525742051377400,11.00537744140625,5.321113109588623,11.735777854919434,-0.2106897532939911
1771525742061380000,11.015380126953126,6.250063419342041,11.041460037231445,-0.12928688526153564
1771525742071382500,11.025382568359374,5.809530258178711,10.672752380371094,0.5410895943641663
1771525742081385200,11.03538525390625,4.440047264099121,10.548254013061523,1.0438719987869263
1771525742091388000,11.045387939453125,3.003525972366333,10.414178848266602,1.072602391242981
1771525742101390600,11.055390625,1.9261353015899658,10.399813652038574,1.0007762908935547
1771525742111393300,11.065393310546876,1.313219666481018,10.251373291015625,0.8667010068893433
1771525742121396000,11.07539599609375,1.6101006269454956,10.055048942565918,0.4884171485900879
1771525742131398700,11.085398681640624,2.4241292476654053,9.70549488067627,0.047884032130241394
1771525742141401300,11.0954013671875,3.051409959793091,9.37509536743164,-0.22505496442317963
1771525742151403800,11.10540380859375,3.5206735134124756,9.083003044128418,-0.2968810200691223
1771525742161406500,11.115406494140625,3.8127663135528564,8.80048656463623,-0.29209262132644653
1771525742171409200,11.1254091796875,3.7600936889648438,8.470087051391602,-0.181959331035614
1771525742181411800,11.135411865234374,3.3243491649627686,8.144475936889648,0.014365210197865963
1771525742191414500,11.14541455078125,2.7688941955566406,7.770980358123779,0.2298433631658554
1771525742201417200,11.155417236328125,2.270900249481201,7.450157165527344,0.35913026332855225
1771525742211420000,11.165419921875,1.7920600175857544,7.263409614562988,0.40222588181495667
1771525742231425000,11.185425048828124,1.6484078168869019,6.961740016937256,0.06224924325942993
1771525742241427700,11.195427734375,1.8926163911819458,6.875548839569092,0.13407529890537262
1771525742251430400,11.205430419921875,1.8926163911819458,6.918644428253174,0.17717093229293823
1771525742261433000,11.21543310546875,1.7585411071777344,6.995258808135986,0.1628057211637497
1771525742271435800,11.225435791015625,1.7106571197509766,6.976105213165283,0.22026655077934265
1771525742281438500,11.2354384765625,1.8543092012405396,7.038354396820068,0.019153613597154617
1771525742291441200,11.245441162109374,1.8782511949539185,7.153275966644287,-0.2106897532939911
1771525742301443800,11.25544384765625,1.5765818357467651,7.27298641204834,-0.24899697303771973
1771525742311446300,11.2654462890625,1.1887211799621582,7.383119583129883,-0.17717093229293823
1771525742321449000,11.275448974609375,1.049857497215271,7.502829551696777,-0.19632454216480255
1771525742331451600,11.28545166015625,1.217451572418213,7.7230963706970215,-0.09576806426048279
1771525742341454300,11.295454345703124,1.3563152551651,7.914632320404053,0.22026655077934265
1771525742351457000,11.30545703125,1.5095441341400146,8.283339500427246,0.10055647045373917
1771525742361459700,11.315459716796875,1.8064252138137817,8.623315811157227,-0.028730420395731926
1771525742371462400,11.32546240234375,2.079364061355591,9.011177062988281,-0.12928688526153564
1771525742381465000,11.335465087890626,2.2804770469665527,9.537900924682617,-0.181959331035614
1771525742391467500,11.345467529296876,2.342726469039917,10.088567733764648,-0.2537853717803955
1771525742401470200,11.35547021484375,2.3523032665252686,10.663175582885742,-0.31124621629714966
1771525742411473000,11.365472900390625,2.649184226989746,11.089344024658203,-0.2537853717803955
1771525742421475600,11.3754755859375,2.955641984939575,11.419743537902832,-0.16759411990642548
1771525742431478300,11.385478271484375,3.338714361190796,11.726201057434082,-0.08619125932455063
1771525742441481000,11.39548095703125,3.33392596244812,11.91773796081543,0.14365209639072418
1771525742451483600,11.405483642578124,3.1088709831237793,11.989563941955566,0.3687070608139038
1771525742461486300,11.415486328125,2.783259391784668,12.080543518066406,0.19632454216480255
1771525742471489000,11.425489013671875,2.299630641937256,12.181099891662598,0.20111294090747833
1771525742481491500,11.435491455078125,1.4281413555145264,12.396577835083008,0.3256114423274994
1771525742491494100,11.445494140625,0.5183446407318115,12.6551513671875,0.6655880808830261
1771525742501496800,11.455496826171874,-0.13766659796237946,12.865840911865234,1.015141487121582
1771525742511499500,11.46549951171875,0.08738835901021957,13.009493827819824,1.2306196689605713
1771525742521502200,11.475502197265625,1.3323732614517212,12.894572257995605,1.1109095811843872
1771525742531505000,11.4855048828125,3.1663317680358887,12.47319221496582,0.9050082564353943
1771525742541507600,11.495507568359375,4.794388771057129,11.845911026000977,0.569819986820221
1771525742551510300,11.50551025390625,5.6227827072143555,11.213842391967773,0.47405192255973816
1771525742561512700,11.5155126953125,5.249287128448486,10.797250747680664,0.7757213711738586
1771525742571515400,11.525515380859375,3.8606503009796143,10.486004829406738,1.2066776752471924
1771525742581518000,11.53551806640625,2.117671489715576,10.351929664611816,1.50355863571167
1771525742591520800,11.545520751953125,0.7242460250854492,10.299257278442383,1.7094600200653076
1771525742601523500,11.5555234375,0.07302315533161163,10.165182113647461,1.6615760326385498
1771525742611526100,11.565526123046874,0.02992752194404602,10.021530151367188,1.2976573705673218
1771525742621528800,11.57552880859375,0.5805938839912415,9.686341285705566,0.8427590131759644
1771525742631531500,11.585531494140625,1.5765818357467651,9.312846183776855,0.4884171485900879
1771525742641534000,11.595533935546875,2.448071241378784,8.939350128173828,0.24899697303771973
1771525742651536600,11.60553662109375,3.094505786895752,8.565855026245117,0.272938996553421
1771525742661539300,11.615539306640626,3.530250310897827,8.216301918029785,0.545877993106842
1771525742671542000,11.6255419921875,3.5446155071258545,7.938574314117432,0.8667010068893433
1771525742681544700,11.635544677734375,3.3243491649627686,7.6752119064331055,0.9864110946655273
1771525742691547400,11.64554736328125,2.9221231937408447,7.459733963012695,0.8810662031173706
1771525742701549800,11.6555498046875,2.5007436275482178,7.282563209533691,0.8523358106613159
1771525742711552500,11.665552490234376,2.3810336589813232,6.995258808135986,0.6560112833976746
1771525742721555200,11.67555517578125,2.256535053253174,6.889914035797119,0.6033388376235962
1771525742731557600,11.6855576171875,2.0937294960021973,6.707954406738281,0.5267243981361389
1771525742741560300,11.695560302734375,1.9405004978179932,6.597821235656738,0.42616790533065796
1771525742751563000,11.70556298828125,1.92134690284729,6.5499372482299805,0.3208230137825012
1771525742761565400,11.7155654296875,1.7106571197509766,6.578667640686035,0.28730419278144836
1771525742771568000,11.725568115234376,1.4712369441986084,6.612186431884766,0.31124621629714966
1771525742781570800,11.73557080078125,1.4329297542572021,6.664858818054199,0.15322890877723694
1771525742791573200,11.7455732421875,1.4329297542572021,6.8372416496276855,0.1388636976480484
1771525742801576000,11.755575927734375,1.2413935661315918,7.076661586761475,0.20111294090747833
1771525742811578600,11.76557861328125,1.0833762884140015,7.36396598815918,0.272938996553421
1771525742821581000,11.7755810546875,1.0690110921859741,7.646481513977051,0.3495534360408783
1771525742831583700,11.785583740234374,1.3036428689956665,7.92899751663208,0.47884035110473633
1771525742841586400,11.79558642578125,1.5382746458053589,8.326435089111328,0.5171475410461426
1771525742851588900,11.8055888671875,1.9500772953033447,8.814851760864258,0.49320554733276367
1771525742861591600,11.815591552734375,2.2038626670837402,9.331999778747559,0.5363011956214905
1771525742871594200,11.82559423828125,2.448071241378784,9.810839653015137,0.5554547905921936
1771525742881596700,11.8355966796875,2.5342624187469482,10.284892082214355,0.6272808313369751
1771525742891599400,11.845599365234374,2.6396074295043945,10.715847969055176,0.6943184733390808
1771525742901602000,11.85560205078125,2.7449522018432617,11.113286018371582,0.6943184733390808
1771525742911604500,11.8656044921875,3.0131027698516846,11.424531936645508,0.6607996821403503
1771525742921607200,11.875607177734375,3.185485363006592,11.726201057434082,0.7086837291717529
1771525742931609900,11.88560986328125,3.137601375579834,12.147581100463867,0.7469909191131592
1771525742941612300,11.8956123046875,3.180696964263916,12.415731430053711,0.828393816947937
1771525742951615000,11.905614990234374,3.118447780609131,12.659939765930176,0.9385270476341248
1771525742961617700,11.91561767578125,2.673126220703125,12.975975036621094,1.015141487121582
1771525742971620400,11.925620361328125,1.8112136125564575,13.397354125976562,1.216254472732544
1771525742981623000,11.935623046875,0.829590916633606,13.574524879455566,1.460463047027588
1771525742991625700,11.945625732421876,0.10654197633266449,13.756484031677246,1.4508862495422363
1771525743001628200,11.955628173828124,0.07781155407428741,13.627197265625,1.1540051698684692
1771525743011630800,11.965630859375,0.8678981065750122,13.349470138549805,0.6129156351089478
1771525743021633500,11.975633544921875,2.433706045150757,12.726977348327637,0.22505496442317963
1771525743031636200,11.98563623046875,4.210203647613525,11.889006614685059,-0.11013327538967133
1771525743041639000,11.995638916015626,5.340266704559326,11.16117000579834,-0.24899697303771973
1771525743051641600,12.0056416015625,5.163095951080322,10.672752380371094,0.2777273952960968
1771525743061644300,12.015644287109374,3.927687883377075,10.299257278442383,0.9720458984375
1771525743071647000,12.02564697265625,2.6874914169311523,10.102932929992676,0.9720458984375
1771525743081649400,12.0356494140625,1.8399440050125122,9.954492568969727,0.8810662031173706
1771525743091652000,12.045652099609375,1.2509703636169434,9.858723640441895,0.790086567401886
1771525743101654800,12.05565478515625,1.2078747749328613,9.676764488220215,0.4836287498474121
1771525743111657500,12.065657470703124,1.8734627962112427,9.442132949829102,-0.15322890877723694
1771525743121660200,12.07566015625,2.5438392162323,9.193136215209961,-0.6703764796257019
1771525743131662800,12.085662841796875,2.960430383682251,8.867524147033691,-0.8619126081466675
1771525743141665500,12.09566552734375,3.199850559234619,8.541913032531738,-0.8427590131759644
1771525743151668200,12.105668212890626,3.2190041542053223,8.201936721801758,-0.7661445140838623
1771525743161670700,12.115670654296874,2.9747955799102783,7.8092875480651855,-0.608127236366272
1771525743171673300,12.12567333984375,2.5246856212615967,7.459733963012695,-0.08140286058187485
1771525743181676000,12.135676025390625,2.117671489715576,7.148487567901611,0.2537853717803955
1771525743191678700,12.1456787109375,1.9117701053619385,6.9042792320251465,0.43095630407333374
1771525743201681400,12.155681396484376,1.9357120990753174,6.722319602966309,0.6033388376235962
1771525743211684000,12.16568408203125,2.0602104663848877,6.684012413024902,0.545877993106842
1771525743221686800,12.175686767578124,2.031480073928833,6.655282020568848,0.5123591423034668
1771525743231689500,12.185689453125,1.9596540927886963,6.655282020568848,0.33039984107017517
1771525743241692000,12.19569189453125,1.7537527084350586,6.717531204223633,0.09576806426048279
1771525743251694600,12.205694580078125,1.5478514432907104,6.746262073516846,-0.038307227194309235
1771525743261697300,12.215697265625,1.4089876413345337,6.808511257171631,-0.07661445438861847
1771525743271700000,12.225699951171874,1.1456254720687866,6.909067630767822,-0.028730420395731926
1771525743281702700,12.23570263671875,1.0307037830352783,7.076661586761475,-0.06224924325942993
1771525743291705300,12.245705322265625,0.9828197956085205,7.234679222106934,0
1771525743301708000,12.2557080078125,0.9780313968658447,7.464522361755371,-0.05267243832349777
1771525743311710700,12.265710693359376,1.0019733905792236,7.751826763153076,-0.11971008777618408
1771525743321713200,12.275713134765626,1.092953085899353,8.082226753234863,-0.15801730751991272
1771525743331715800,12.2857158203125,1.3706804513931274,8.55148983001709,-0.28730419278144836
1771525743341718500,12.295718505859375,1.8064252138137817,8.934561729431152,-0.35434186458587646
1771525743351721200,12.30572119140625,2.184709072113037,9.422979354858398,-0.3878606855869293
1771525743361724000,12.315723876953125,2.385822057723999,10.026318550109863,-0.40701428055763245
1771525743371726600,12.3257265625,2.5055320262908936,10.591349601745605,-0.44532153010368347
1771525743381729300,12.335729248046874,2.5917234420776367,11.046248435974121,-0.38307225704193115
1771525743391732000,12.34573193359375,2.625242233276367,11.438897132873535,-0.31124621629714966
1771525743401734400,12.355734375,2.677914619445801,11.884218215942383,-0.15801730751991272
1771525743411737000,12.365737060546875,2.6348190307617188,12.286444664001465,0.1149216815829277
1771525743421739800,12.37573974609375,2.7688941955566406,12.501922607421875,0.4884171485900879
1771525743431742500,12.385742431640624,2.8886044025421143,12.674304962158203,0.7038952708244324
1771525743441745200,12.3957451171875,2.941276788711548,12.707823753356934,0.7326257228851318
1771525743451747800,12.405747802734375,2.6348190307617188,12.750919342041016,0.727837324142456
1771525743461750500,12.41575048828125,1.801636815071106,12.851475715637207,0.7805097699165344
1771525743471753200,12.425753173828125,0.7386112213134766,12.918514251708984,0.9528923034667969
1771525743481755600,12.435755615234376,-0.07062894850969315,12.966398239135742,1.0630255937576294
1771525743491758300,12.44575830078125,-0.04189852997660637,12.95682144165039,0.9576807022094727
1771525743501761000,12.455760986328125,1.2030863761901855,12.789226531982422,0.5889736413955688
1771525743511763700,12.465763671875,2.874239206314087,12.372635841369629,0.2106897532939911
1771525743521766400,12.475766357421875,4.253299236297607,11.783661842346191,0.019153613597154617
1771525743531769000,12.48576904296875,5.081693172454834,11.089344024658203,0.009576806798577309
1771525743541771800,12.495771728515624,4.871003150939941,10.610503196716309,0.2825157940387726
1771525743551774500,12.5057744140625,3.7265748977661133,10.34714126586914,0.7948749661445618
1771525743561777000,12.51577685546875,2.1703438758850098,10.169970512390137,1.2976573705673218
1771525743571779600,12.525779541015625,0.8631097078323364,10.093356132507324,1.6328455209732056
1771525743581782300,12.5357822265625,0.1256955862045288,10.011953353881836,1.6615760326385498
1771525743591785000,12.545784912109376,0.2214636504650116,9.868300437927246,1.3311761617660522
1771525743601787600,12.55578759765625,0.9684545993804932,9.533112525939941,0.7709329724311829
1771525743621793000,12.57579296875,2.759317398071289,8.82442855834961,-0.023942016065120697
1771525743631795700,12.585795654296875,3.0801405906677246,8.417414665222168,0.023942016065120697
1771525743641798100,12.595798095703126,3.2094273567199707,8.082226753234863,0.09576806426048279
1771525743651800800,12.60580078125,3.1711201667785645,7.742249965667725,0.15322890877723694
1771525743661803500,12.615803466796875,2.869450807571411,7.450157165527344,0.40222588181495667
1771525743671806200,12.62580615234375,2.6635494232177734,7.153275966644287,0.6991068720817566
1771525743681809000,12.635808837890625,2.7114334106445312,6.913856029510498,0.8475474119186401
1771525743691811600,12.6458115234375,2.73537540435791,6.73189640045166,0.933738648891449
1771525743701814300,12.655814208984374,2.61087703704834,6.60739803314209,0.9289502501487732
1771525743711817000,12.66581689453125,2.4384944438934326,6.51641845703125,0.8188169598579407
1771525743721819600,12.675819580078125,2.0841526985168457,6.454169273376465,0.689530074596405
1771525743731822000,12.685822021484375,1.8160020112991333,6.521206855773926,0.44532153010368347
1771525743741824800,12.69582470703125,1.5670050382614136,6.530783653259277,0.4165911078453064
1771525743751827500,12.705827392578126,1.3467384576797485,6.655282020568848,0.31603461503982544
1771525743761830100,12.715830078125,1.217451572418213,6.7941460609436035,0.1867477297782898
1771525743771832800,12.725832763671875,1.1552022695541382,6.9473748207092285,0.023942016065120697
1771525743781835500,12.73583544921875,0.9588778018951416,7.196371555328369,-0.11013327538967133
1771525743791838200,12.745838134765625,0.7625532150268555,7.502829551696777,-0.2059013396501541
1771525743801841000,12.7558408203125,0.6763619780540466,7.814075946807861,-0.1628057211637497
1771525743811843300,12.76584326171875,0.7912836670875549,8.230667114257812,0.028730420395731926
1771525743821846000,12.775845947265625,0.9157821536064148,8.776544570922852,0.004788403399288654
1771525743831848700,12.7858486328125,1.3706804513931274,9.245808601379395,-0.14844051003456116
1771525743841851400,12.795851318359375,1.9835960865020752,9.676764488220215,-0.07182604819536209
1771525743851854000,12.80585400390625,2.4863784313201904,10.074202537536621,0.07182604819536209
1771525743871859500,12.825859375,3.0849289894104004,10.725424766540527,0.5985504388809204
1771525743881862100,12.835862060546875,3.1950621604919434,11.0701904296875,0.5841852426528931
1771525743891864600,12.845864501953125,3.314772367477417,11.391013145446777,0.6416460275650024
1771525743901867300,12.8558671875,3.161543369293213,11.620856285095215,0.9289502501487732
1771525743911870000,12.865869873046876,2.8119897842407227,11.912949562072754,1.0103530883789062
1771525743931875300,12.885875244140625,2.826355218887329,12.286444664001465,0.828393816947937
1771525743941878000,12.8958779296875,3.2525229454040527,12.415731430053711,0.8188169598579407
1771525743951880700,12.905880615234375,3.664325714111328,12.573748588562012,0.7326257228851318
1771525743961883400,12.91588330078125,3.578134536743164,12.698246955871582,0.7374141216278076
1771525743971885800,12.9258857421875,3.027467966079712,12.808380126953125,0.6799532771110535
1771525743981888500,12.935888427734374,2.0889410972595215,12.817956924438477,0.5650315880775452
1771525743991891200,12.94589111328125,1.0402805805206299,12.794014930725098,0.3974374830722809
1771525744001894000,12.955893798828125,0.4321534037590027,12.659939765930176,0.090979665517807
1771525744011896600,12.965896484375,0.5518634915351868,12.415731430053711,-0.07182604819536209
1771525744021899300,12.975899169921876,1.2413935661315918,12.018294334411621,-0.14365209639072418
1771525744031902000,12.98590185546875,2.098517894744873,11.505934715270996,-0.2346317619085312
1771525744041904600,12.995904541015625,2.7066450119018555,11.007941246032715,-0.2346317619085312
1771525744051907000,13.005906982421875,2.6396074295043945,10.533888816833496,-0.05267243832349777
1771525744061909800,13.01590966796875,2.0171148777008057,10.122086524963379,0.3447650372982025
1771525744071912400,13.025912353515626,1.380257248878479,9.839570045471191,0.7374141216278076
1771525744081915100,13.0359150390625,0.7625532150268555,9.600150108337402,0.933738648891449
1771525744091917800,13.045917724609374,0.27413609623908997,9.518747329711914,0.9385270476341248
1771525744101920500,13.05592041015625,0.0011971008498221636,9.37509536743164,0.8810662031173706
1771525744111923200,13.065923095703125,0.27413609623908997,9.178771018981934,0.4644751250743866
1771525744121926000,13.07592578125,0.829590916633606,8.97765827178955,0.014365210197865963
1771525744131928300,13.08592822265625,1.3419500589370728,8.872312545776367,-0.17238251864910126
1771525744141931000,13.095930908203124,1.8112136125564575,8.762179374694824,-0.3256114423274994
1771525744151933700,13.10593359375,2.29484224319458,8.623315811157227,-0.40701428055763245
1771525744161936400,13.115936279296875,2.476801633834839,8.417414665222168,-0.2777273952960968
1771525744171939000,13.12593896484375,2.476801633834839,8.154052734375,-0.1149216815829277
1771525744181941800,13.135941650390626,2.227804660797119,7.9625163078308105,0.26815059781074524
1771525744191944400,13.1459443359375,2.0458452701568604,7.627327919006348,0.4405331015586853
1771525744211949600,13.165949462890625,1.6723499298095703,7.215525150299072,1.139639973640442
1771525744221952300,13.1759521484375,1.4616601467132568,7.08144998550415,1.3263877630233765
1771525744231955000,13.185954833984376,1.3658920526504517,7.114968776702881,1.1683704853057861
1771525744241957600,13.19595751953125,1.2988544702529907,7.148487567901611,1.0438719987869263
1771525744251960300,13.205960205078124,1.456871747970581,7.162852764129639,0.7565677165985107
1771525744261963000,13.215962890625,1.6388310194015503,7.17242956161499,0.363918662071228
1771525744271965700,13.225965576171875,1.7920600175857544,7.186794757843018,0.11013327538967133
1771525744281968400,13.235968505859375,1.7872716188430786,7.148487567901611,0.07182604819536209
1771525744291970800,13.245970703125,1.657984733581543,7.162852764129639,0.014365210197865963
1771525744301973500,13.255973388671874,1.6484078168869019,7.205948352813721,-0.12449848651885986
1771525744311976200,13.26597607421875,1.6675615310668945,7.335235595703125,-0.19153612852096558
1771525744321979000,13.275978759765625,1.581370234489441,7.498041152954102,-0.3064578175544739
1771525744331981600,13.285981689453125,1.2222399711608887,7.770980358123779,-0.33997663855552673
1771525744341984000,13.29598388671875,0.547075092792511,8.110957145690918,-0.35913026332855225
1771525744351986700,13.305986572265626,0.08738835901021957,8.513182640075684,-0.2298433631658554
1771525744361989400,13.3159892578125,0.0347159244120121,8.97765827178955,-0.08619125932455063
1771525744371991800,13.32599169921875,0.34596213698387146,9.446921348571777,-0.043095629662275314
