time,seconds_elapsed,z,y,x
1771525731178453800,0.132453857421875,0.058589499443769455,-0.08042740821838379,-0.0624510794878006
1771525731188454100,0.1424541015625,0.034088436514139175,-0.015446322970092297,-0.0294279083609581
1771525731228460500,0.18246044921875,-0.030892645940184593,0.04314317926764488,0.061119500547647476
1771525731258470000,0.212469970703125,0.010652636177837849,-0.030360013246536255,0.024900536984205246
1771525731268473900,0.222473876953125,0.03195790946483612,-0.05273054912686348,0.014247900806367397
1771525731278478000,0.23247802734375,0.045806337147951126,-0.06870950758457184,0.00892158318310976
1771525731298487000,0.252487060546875,0.050067391246557236,-0.042077913880348206,-0.0294279083609581
1771525731348504800,0.3025048828125,0.022370535880327225,0.04314317926764488,0.012117373757064342
1771525731358507500,0.312507568359375,0.02024000883102417,0.046338967978954315,0.00892158318310976
1771525731388515600,0.342515625,0.0031957910396158695,0.03142527863383293,0.005725792143493891
1771525731398518300,0.352518310546875,0.005326318088918924,0.01651158556342125,0.01850895583629608
1771525731408521000,0.36252099609375,0.010652636177837849,0.00798947736620903,0.029161592945456505
1771525731418523600,0.372523681640625,0.010652636177837849,0.0037284228019416332,0.030226856470108032
1771525731428526300,0.3825263671875,0.008522109128534794,0.0037284228019416332,0.01850895583629608
1771525731438529000,0.392529052734375,0.004261054564267397,0.004793686326593161,0.0035952648613601923
1771525731448531700,0.40253173828125,-0.004261054564267397,0.0005326318205334246,-0.004926844500005245
1771525731458534400,0.412534423828125,-0.010652636177837849,-0.015446322970092297,-0.010253162123262882
1771525731468537300,0.422537353515625,-0.012783164158463478,-0.042077913880348206,-0.02090579830110073
1771525731478540000,0.4325400390625,-0.006391582079231739,-0.0516652874648571,-0.02197106182575226
1771525731488542700,0.442542724609375,-0.0074568456038832664,-0.038882121443748474,-0.009187898598611355
1771525731498545400,0.45254541015625,-0.019174745306372643,-0.013315795920789242,0.0025300011038780212
1771525731508548000,0.462548095703125,-0.02769685536623001,0.025033695623278618,0.012117373757064342
1771525731518550800,0.47255078125,-0.02769685536623001,0.05592634156346321,0.02277000993490219
1771525731528553500,0.482553466796875,-0.0330231711268425,0.08149266988039017,0.03129211813211441
1771525731538556200,0.49255615234375,-0.04474107176065445,0.1038632020354271,0.03129211813211441
1771525731548558800,0.502558837890625,-0.045806337147951126,0.1368863731622696,0.024900536984205246
1771525731558561300,0.512561279296875,-0.042610544711351395,0.1603221744298935,0.01957421936094761
1771525731568564000,0.52256396484375,-0.05326318368315697,0.17204007506370544,0.020639482885599136
1771525731578566700,0.532566650390625,-0.05965476483106613,0.18695376813411713,0.028096329420804977
1771525731588569300,0.5425693359375,-0.061785291880369186,0.16245271265506744,0.033422645181417465
1771525731598572000,0.552572021484375,-0.061785291880369186,0.10492847114801407,0.029161592945456505
1771525731608574700,0.56257470703125,-0.046871598809957504,0.054861076176166534,0.03768370300531387
1771525731618577400,0.572577392578125,-0.029827382415533066,0.022903168573975563,0.0504668653011322
1771525731628580000,0.582580078125,-0.02769685536623001,0.021837905049324036,0.06325002759695053
1771525731638582500,0.59258251953125,-0.011717899702489376,0.033555805683135986,0.08562056720256805
1771525731648585200,0.602585205078125,-0.010652636177837849,0.04527370631694794,0.07070687413215637
1771525731658588000,0.612587890625,0.005326318088918924,0.03675159439444542,0.04620581120252609
1771525731668590600,0.622590576171875,0.02024000883102417,0.020772641524672508,0.01850895583629608
1771525731678593300,0.63259326171875,0.02769685536623001,0.018642114475369453,-0.010253162123262882
1771525731688596000,0.642595947265625,0.026631591841578484,0.020772641524672508,-0.035819489508867264
1771525731698598700,0.6525986328125,0.014913691207766533,0.015446322970092297,-0.056059498339891434
1771525731708601300,0.662601318359375,0.011717899702489376,0.011185267940163612,-0.056059498339891434
1771525731718603800,0.672603759765625,0.012783164158463478,0.011185267940163612,-0.039015281945466995
1771525731728606500,0.6826064453125,0.006391582079231739,-0.0015978955198079348,-0.028362644836306572
1771525731738609200,0.692609130859375,0.006391582079231739,-0.0005326318205334246,-0.02516685426235199
1771525731748611800,0.70261181640625,0.017044218257069588,0.020772641524672508,-0.01664474420249462
1771525731758614500,0.712614501953125,0.0021305272821336985,0.0655137151479721,-0.02090579830110073
1771525731768617200,0.7226171875,-0.006391582079231739,0.12303794920444489,-0.004926844500005245
1771525731778620000,0.732619873046875,-0.014913691207766533,0.10173267871141434,-0.012383690103888512
1771525731788622600,0.74262255859375,-0.0021305272821336985,0.026098959147930145,-0.051798444241285324
1771525731798625300,0.752625244140625,0.03941475600004196,-0.058056868612766266,-0.07843003422021866
1771525731808628000,0.7626279296875,0.06072002649307251,-0.1038632020354271,-0.09440898895263672
1771525731818630700,0.772630615234375,0.06391581892967224,-0.11132004857063293,-0.0954742506146431
1771525731828633300,0.78263330078125,0.05965476483106613,-0.06444845348596573,-0.06458161026239395
1771525731838636000,0.792635986328125,0.034088436514139175,-0.006924213841557503,-0.047537390142679214
1771525731848638700,0.802638671875,0.02450106292963028,-0.017576850950717926,-0.023036325350403786
1771525731858641700,0.8126416015625,0.02769685536623001,-0.021837905049324036,-0.0006657897611148655
1771525731868644400,0.822644287109375,0.010652636177837849,-0.009054740890860558,0.021704746410250664
1771525731878647000,0.83264697265625,-0.01597895473241806,-0.0015978955198079348,0.0270310640335083
1771525731888649700,0.842649658203125,-0.022370535880327225,-0.01438105944544077,0.033422645181417465
1771525731898652400,0.85265234375,-0.022370535880327225,-0.011185267940163612,0.03981423005461693
1771525731908655000,0.862655029296875,-0.026631591841578484,-0.013315795920789242,0.033422645181417465
1771525731918657800,0.87265771484375,-0.02450106292963028,-0.026098959147930145,0.029161592945456505
1771525731928660500,0.882660400390625,-0.017044218257069588,-0.03142527863383293,0.030226856470108032
1771525731938663200,0.8926630859375,-0.017044218257069588,-0.030360013246536255,0.017443692311644554
1771525731948665900,0.902665771484375,-0.018109481781721115,-0.010120004415512085,0.00892158318310976
1771525731958668500,0.91266845703125,-0.02769685536623001,0.0516652874648571,0.021704746410250664
1771525731968671200,0.922671142578125,-0.04793686419725418,0.11025478690862656,0.02383527345955372
1771525731978674200,0.932674072265625,-0.066046342253685,0.1411474347114563,0.02277000993490219
1771525731988676900,0.9426767578125,-0.07243792712688446,0.13369058072566986,0.0270310640335083
1771525731998679600,0.952679443359375,-0.08096003532409668,0.1038632020354271,0.030226856470108032
1771525732008682200,0.96268212890625,-0.07882951200008392,0.0516652874648571,0.03129211813211441
1771525732018685000,0.972684814453125,-0.05113265663385391,-0.02396843209862709,0.03448791056871414
1771525732028687600,0.9826875,-0.04048001766204834,-0.09214530140161514,0.03555317223072052
1771525732038690300,0.992690185546875,-0.026631591841578484,-0.11877689510583878,0.01957421936094761
1771525732048693000,1.00269287109375,-0.009587372653186321,-0.11238531768321991,0.016378428786993027
1771525732058695700,1.01269580078125,0.0021305272821336985,-0.08149266988039017,0.01850895583629608
1771525732068698400,1.022698486328125,0.005326318088918924,-0.04420844092965126,0.007856319658458233
1771525732078701000,1.032701171875,0.0074568456038832664,-0.013315795920789242,-0.008122635073959827
1771525732088703700,1.042703857421875,0.012783164158463478,-0.010120004415512085,-0.014514217153191566
1771525732098706400,1.05270654296875,0.012783164158463478,-0.01438105944544077,-0.014514217153191566
1771525732108709400,1.06270947265625,0.009587372653186321,-0.021837905049324036,-0.013448953628540039
1771525732118712000,1.072712158203125,0.006391582079231739,-0.0282294861972332,-0.009187898598611355
1771525732128714800,1.08271484375,0,-0.026098959147930145,-0.0006657897611148655
1771525732138717400,1.092717529296875,-0.006391582079231739,-0.018642114475369453,0.0003994738799519837
1771525732148720000,1.10272021484375,-0.009587372653186321,-0.01970737800002098,-0.0006657897611148655
1771525732158722800,1.112722900390625,0,-0.025033695623278618,0.005725792143493891
1771525732168725500,1.1227255859375,0.009587372653186321,-0.027164222672581673,0.007856319658458233
1771525732178728200,1.132728271484375,0.017044218257069588,-0.04846949502825737,-0.005992108024656773
1771525732188731000,1.14273095703125,0.026631591841578484,-0.07297056168317795,-0.019840534776449203
1771525732198733600,1.152733642578125,0.0330231711268425,-0.07403582334518433,-0.027297381311655045
1771525732208736300,1.162736328125,0.02876211889088154,-0.06444845348596573,-0.01664474420249462
1771525732218739000,1.172739013671875,0.021305272355675697,-0.06018739566206932,-0.0017310534603893757
1771525732228742000,1.182741943359375,0.019174745306372643,-0.06870950758457184,0.001464737462811172
1771525732238744600,1.19274462890625,0.023435799404978752,-0.0751010850071907,-0.010253162123262882
1771525732248747300,1.202747314453125,0.014913691207766533,-0.07616634666919708,-0.0294279083609581
1771525732258750000,1.21275,0.009587372653186321,-0.06444845348596573,-0.04221107065677643
1771525732268752600,1.222752685546875,0.004261054564267397,-0.04953476041555405,-0.04114580899477005
1771525732278755300,1.23275537109375,-0.0010652636410668492,-0.026098959147930145,-0.024101590737700462
1771525732288758000,1.242758056640625,-0.008522109128534794,0.005858949851244688,-0.004926844500005245
1771525732298760700,1.2527607421875,-0.018109481781721115,0.038882121443748474,0.005725792143493891
1771525732308763400,1.262763427734375,-0.022370535880327225,0.05273054912686348,0.014247900806367397
1771525732318766000,1.27276611328125,-0.025566328316926956,0.054861076176166534,0.01318263728171587
1771525732328768800,1.282768798828125,-0.03195790946483612,0.05699160322546959,0.0153131652623415
1771525732338771500,1.292771484375,-0.03941475600004196,0.0655137151479721,0.02277000993490219
1771525732348774100,1.302774169921875,-0.045806337147951126,0.05592634156346321,0.020639482885599136
1771525732358777000,1.312777099609375,-0.042610544711351395,0.029294749721884727,0.00892158318310976
1771525732368779800,1.32277978515625,-0.03195790946483612,-0.004793686326593161,-0.012383690103888512
1771525732378782500,1.332782470703125,-0.02450106292963028,-0.022903168573975563,-0.02516685426235199
1771525732388785200,1.34278515625,-0.017044218257069588,-0.04314317926764488,-0.026232117787003517
1771525732398787800,1.352787841796875,-0.011717899702489376,-0.04953476041555405,-0.02516685426235199
1771525732408790500,1.36279052734375,-0.010652636177837849,-0.046338967978954315,-0.039015281945466995
1771525732418793200,1.372793212890625,-0.0031957910396158695,-0.04740423336625099,-0.06458161026239395
1771525732428796000,1.3827958984375,0.0031957910396158695,-0.0516652874648571,-0.06671213358640671
1771525732438798600,1.392798583984375,0.005326318088918924,-0.061252661049366,-0.06564687192440033
1771525732448801300,1.40280126953125,0.0021305272821336985,-0.04314317926764488,-0.04540686309337616
1771525732458804000,1.412803955078125,-0.005326318088918924,-0.025033695623278618,-0.008122635073959827
1771525732468806700,1.422806640625,-0.01597895473241806,-0.009054740890860558,0.009986846707761288
1771525732478809300,1.432809326171875,-0.026631591841578484,0.0015978955198079348,0.005725792143493891
1771525732488812300,1.442812255859375,-0.03195790946483612,-0.0005326318205334246,-0.008122635073959827
1771525732498815000,1.45281494140625,-0.0330231711268425,-0.0037284228019416332,-0.026232117787003517
1771525732508817700,1.462817626953125,-0.03515370190143585,0.002663159044459462,-0.031558435410261154
1771525732518820400,1.4728203125,-0.03515370190143585,0.01438105944544077,-0.03795001655817032
1771525732528823000,1.482822998046875,-0.03515370190143585,0.04527370631694794,-0.01771000772714615
1771525732538825700,1.49282568359375,-0.02876211889088154,0.04953476041555405,0.006791055668145418
1771525732548828400,1.502828369140625,-0.012783164158463478,0.0516652874648571,0.02277000993490219
1771525732558831000,1.5128310546875,0.0031957910396158695,0.04314317926764488,0.04194475710391998
1771525732568833800,1.522833740234375,0.011717899702489376,0.03249054029583931,0.05153212696313858
1771525732578836500,1.53283642578125,0.017044218257069588,0.021837905049324036,0.04727107286453247
1771525732588839200,1.542839111328125,0.018109481781721115,0.005858949851244688,0.029161592945456505
1771525732598841900,1.552841796875,0.019174745306372643,-0.01225053146481514,0.012117373757064342
1771525732608844800,1.5628447265625,0.021305272355675697,-0.034621067345142365,0.011052110232412815
1771525732618847500,1.572847412109375,0.02450106292963028,-0.053795814514160156,0.014247900806367397
1771525732628850200,1.58285009765625,0.026631591841578484,-0.06338318437337875,0.005725792143493891
1771525732638852900,1.592852783203125,0.026631591841578484,-0.05273054912686348,-0.0006657897611148655
1771525732648855600,1.60285546875,0.02450106292963028,-0.033555805683135986,0.0035952648613601923
1771525732658858200,1.612858154296875,0.017044218257069588,-0.01225053146481514,0.020639482885599136
1771525732668861000,1.62286083984375,0.004261054564267397,0.009054740890860558,0.03555317223072052
1771525732678863600,1.632863525390625,-0.012783164158463478,0.027164222672581673,0.04301001876592636
1771525732698869000,1.652868896484375,-0.03728422895073891,0.026098959147930145,0.01850895583629608
1771525732708871700,1.66287158203125,-0.041545283049345016,0.029294749721884727,0.005725792143493891
1771525732718874400,1.672874267578125,-0.042610544711351395,0.018642114475369453,0.007856319658458233
1771525732728877000,1.682876953125,-0.034088436514139175,0.010120004415512085,0.005725792143493891
1771525732738880000,1.6928798828125,-0.022370535880327225,0.002663159044459462,0.006791055668145418
1771525732748882700,1.702882568359375,-0.0074568456038832664,-0.02396843209862709,0.012117373757064342
1771525732758885400,1.712885498046875,0.0074568456038832664,-0.04846949502825737,0.0003994738799519837
1771525732768888000,1.72288818359375,0.01597895473241806,-0.0516652874648571,-0.014514217153191566
1771525732778890800,1.732890869140625,0.014913691207766533,-0.04101264849305153,-0.019840534776449203
1771525732788893400,1.7428935546875,0.006391582079231739,-0.033555805683135986,-0.018775271251797676
1771525732798896000,1.752896240234375,0.0021305272821336985,-0.025033695623278618,-0.019840534776449203
1771525732808898800,1.76289892578125,-0.0021305272821336985,-0.01225053146481514,-0.012383690103888512
1771525732818901500,1.772901611328125,-0.0021305272821336985,-0.013315795920789242,0.001464737462811172
1771525732828904200,1.782904296875,0.004261054564267397,-0.026098959147930145,0.011052110232412815
1771525732838907000,1.792906982421875,0.013848427683115005,-0.030360013246536255,0.0153131652623415
1771525732848909600,1.80290966796875,0.014913691207766533,-0.026098959147930145,0.01318263728171587
1771525732858912500,1.81291259765625,0.010652636177837849,-0.017576850950717926,0.01318263728171587
1771525732868915200,1.822915283203125,0.008522109128534794,-0.004793686326593161,0.012117373757064342
1771525732878918000,1.83291796875,0.010652636177837849,-0.004793686326593161,0.01318263728171587
1771525732888920600,1.842920654296875,0.013848427683115005,-0.00798947736620903,0.014247900806367397
1771525732898923300,1.85292333984375,0.013848427683115005,-0.005858949851244688,0.0153131652623415
1771525732908926000,1.862926025390625,0.014913691207766533,-0.009054740890860558,0.024900536984205246
1771525732918928600,1.8729287109375,0.01597895473241806,-0.017576850950717926,0.03129211813211441
1771525732928931300,1.882931396484375,0.013848427683115005,-0.0282294861972332,0.0270310640335083
1771525732938934000,1.89293408203125,0.010652636177837849,-0.03568633273243904,0.02277000993490219
1771525732948936700,1.902936767578125,0.0021305272821336985,-0.03568633273243904,0.02277000993490219
1771525732958939400,1.912939453125,-0.009587372653186321,-0.025033695623278618,0.020639482885599136
1771525732968942000,1.922942138671875,-0.02024000883102417,-0.011185267940163612,0.01850895583629608
1771525732978944800,1.93294482421875,-0.025566328316926956,0.006924213841557503,0.01318263728171587
1771525732988947700,1.94294775390625,-0.026631591841578484,0.020772641524672508,0.01318263728171587
1771525732998950400,1.952950439453125,-0.021305272355675697,0.013315795920789242,0.028096329420804977
1771525733008953000,1.962953125,-0.010652636177837849,-0.018642114475369453,0.03235738351941109
1771525733018955800,1.972955810546875,-0.006391582079231739,-0.042077913880348206,0.016378428786993027
1771525733028958500,1.98295849609375,-0.005326318088918924,-0.04420844092965126,-0.0070573715493083
1771525733038961200,1.992961181640625,-0.006391582079231739,-0.03249054029583931,-0.0070573715493083
1771525733048963800,2.0029638671875,-0.0074568456038832664,-0.0282294861972332,0.001464737462811172
1771525733058966500,2.012966552734375,-0.008522109128534794,-0.01438105944544077,-0.0070573715493083
1771525733068969200,2.02296923828125,-0.008522109128534794,0.004793686326593161,-0.01664474420249462
1771525733078972000,2.032971923828125,-0.009587372653186321,0.022903168573975563,-0.004926844500005245
1771525733088974600,2.042974609375,-0.010652636177837849,0.01438105944544077,0.0153131652623415
1771525733098977300,2.052977294921875,-0.014913691207766533,0.002663159044459462,0.0153131652623415
1771525733108980000,2.06297998046875,-0.019174745306372643,-0.0037284228019416332,-0.009187898598611355
1771525733118983000,2.07298291015625,-0.017044218257069588,-0.006924213841557503,-0.018775271251797676
1771525733128985600,2.082985595703125,-0.009587372653186321,-0.018642114475369453,-0.009187898598611355
1771525733138988300,2.09298828125,-0.004261054564267397,-0.027164222672581673,-0.0006657897611148655
1771525733148991000,2.102990966796875,-0.004261054564267397,-0.038882121443748474,-0.0006657897611148655
1771525733158993700,2.11299365234375,-0.006391582079231739,-0.026098959147930145,-0.009187898598611355
1771525733168996400,2.122996337890625,-0.010652636177837849,-0.010120004415512085,-0.009187898598611355
1771525733178999000,2.1329990234375,-0.0074568456038832664,-0.004793686326593161,-0.003861580742523074
1771525733189001700,2.143001708984375,-0.005326318088918924,-0.002663159044459462,-0.0017310534603893757
1771525733199004400,2.15300439453125,-0.006391582079231739,-0.005858949851244688,0.0003994738799519837
1771525733209007000,2.163007080078125,-0.005326318088918924,-0.006924213841557503,-0.002796316985040903
1771525733219009800,2.173009765625,-0.005326318088918924,-0.002663159044459462,-0.009187898598611355
1771525733229012500,2.183012451171875,-0.0031957910396158695,0.006924213841557503,-0.010253162123262882
1771525733239015400,2.193015380859375,0,0.011185267940163612,0.0003994738799519837
1771525733249018000,2.20301806640625,0.0021305272821336985,0.01225053146481514,0.009986846707761288
1771525733259020800,2.213020751953125,0.004261054564267397,0.00798947736620903,0.0025300011038780212
1771525733269023500,2.2230234375,0.0031957910396158695,0.005858949851244688,-0.004926844500005245
1771525733279026200,2.233026123046875,-0.0021305272821336985,0.01438105944544077,-0.011318426579236984
1771525733289028900,2.24302880859375,-0.009587372653186321,0.026098959147930145,-0.01664474420249462
1771525733299031600,2.253031494140625,-0.008522109128534794,0.020772641524672508,-0.012383690103888512
1771525733309034200,2.2630341796875,-0.0010652636410668492,0.011185267940163612,-0.003861580742523074
1771525733319037000,2.273036865234375,0.0021305272821336985,0.005858949851244688,0.001464737462811172
1771525733329039600,2.28303955078125,0.0031957910396158695,-0.009054740890860558,0.011052110232412815
1771525733339042300,2.293042236328125,-0.0021305272821336985,-0.013315795920789242,0.007856319658458233
1771525733349045000,2.303044921875,-0.011717899702489376,-0.005858949851244688,-0.0070573715493083
1771525733359047700,2.313047607421875,-0.018109481781721115,0.01438105944544077,-0.010253162123262882
1771525733369050600,2.323050537109375,-0.02024000883102417,0.01651158556342125,0.014247900806367397
1771525733379053300,2.33305322265625,-0.023435799404978752,0.0282294861972332,0.03874896466732025
1771525733389056000,2.343055908203125,-0.03195790946483612,0.04420844092965126,0.04833633825182915
1771525733399058700,2.35305859375,-0.04048001766204834,0.0708400309085846,0.049401599913835526
1771525733409061400,2.363061279296875,-0.038349490612745285,0.058056868612766266,0.04833633825182915
1771525733419064000,2.37306396484375,-0.02769685536623001,0.03568633273243904,0.028096329420804977
1771525733429066800,2.383066650390625,-0.018109481781721115,0.020772641524672508,-0.0070573715493083
1771525733439069400,2.3930693359375,-0.009587372653186321,0.010120004415512085,-0.028362644836306572
1771525733449072000,2.403072021484375,-0.004261054564267397,-0.00798947736620903,-0.014514217153191566
1771525733459074800,2.41307470703125,0.0010652636410668492,-0.04420844092965126,0.005725792143493891
1771525733469077500,2.423077392578125,-0.0010652636410668492,-0.053795814514160156,0.009986846707761288
1771525733479080200,2.433080078125,-0.005326318088918924,-0.03568633273243904,0.0035952648613601923
1771525733489083100,2.443083251953125,-0.0074568456038832664,-0.0015978955198079348,0.014247900806367397
1771525733499085800,2.4530859375,-0.009587372653186321,0.029294749721884727,0.03555317223072052
1771525733509088500,2.463088623046875,-0.006391582079231739,0.03994738683104515,0.040879491716623306
1771525733519091200,2.47309130859375,-0.0010652636410668492,0.042077913880348206,0.029161592945456505
1771525733529094000,2.483093994140625,0.005326318088918924,0.037816859781742096,0.007856319658458233
1771525733539096600,2.4930966796875,0.012783164158463478,0.021837905049324036,-0.008122635073959827
1771525733549099300,2.503099365234375,0.018109481781721115,0.0005326318205334246,-0.015579480677843094
1771525733559098600,2.5130986328125,0.018109481781721115,-0.025033695623278618,-0.024101590737700462
1771525733579097600,2.53309765625,0.01597895473241806,-0.037816859781742096,-0.05712476372718811
1771525733589098000,2.543097900390625,0.021305272355675697,-0.038882121443748474,-0.04966791719198227
1771525733599098600,2.5530986328125,0.025566328316926956,-0.029294749721884727,-0.034754227846860886
1771525733609100300,2.563100341796875,0.018109481781721115,-0.006924213841557503,-0.02516685426235199
1771525733619102200,2.573102294921875,0.008522109128534794,0.01438105944544077,-0.030493171885609627
1771525733629105200,2.583105224609375,0.005326318088918924,0.022903168573975563,-0.04114580899477005
1771525733639108600,2.593108642578125,0.008522109128534794,0.018642114475369453,-0.050733182579278946
1771525733649112600,2.603112548828125,0.011717899702489376,0.017576850950717926,-0.052863709628582
1771525733659117000,2.613116943359375,0.019174745306372643,0.018642114475369453,-0.054994236677885056
1771525733669122000,2.6231220703125,0.02769685536623001,0.011185267940163612,-0.052863709628582
1771525733679127300,2.633127197265625,0.03621896356344223,0.002663159044459462,-0.056059498339891434
1771525733689132800,2.6431328125,0.038349490612745285,-0.002663159044459462,-0.06138581782579422
1771525733699138300,2.65313818359375,0.03621896356344223,0.0005326318205334246,-0.06671213358640671
1771525733709143300,2.663143310546875,0.034088436514139175,0.0005326318205334246,-0.06564687192440033
1771525733719146000,2.67314599609375,0.03515370190143585,-0.005858949851244688,-0.06032055243849754
1771525733729148700,2.683148681640625,0.03728422895073891,-0.002663159044459462,-0.05712476372718811
1771525733739151400,2.6931513671875,0.03728422895073891,0.005858949851244688,-0.054994236677885056
1771525733749154000,2.703154052734375,0.038349490612745285,0.004793686326593161,-0.04966791719198227
1771525733759156700,2.71315673828125,0.04367581009864807,-0.0005326318205334246,-0.04434159770607948
1771525733769159400,2.723159423828125,0.046871598809957504,0.0037284228019416332,-0.03795001655817032
1771525733779162000,2.733162109375,0.046871598809957504,-0.0005326318205334246,-0.04434159770607948
1771525733789164800,2.743164794921875,0.046871598809957504,-0.0015978955198079348,-0.06671213358640671
1771525733799167500,2.75316748046875,0.050067391246557236,0.0015978955198079348,-0.08695214241743088
1771525733809170200,2.763170166015625,0.0564589723944664,-0.0015978955198079348,-0.09653951972723007
1771525733819172900,2.7731728515625,0.06391581892967224,0.0015978955198079348,-0.09334372729063034
1771525733829175300,2.78317529296875,0.066046342253685,0.0037284228019416332,-0.07843003422021866
1771525733839178000,2.793177978515625,0.06391581892967224,0.0005326318205334246,-0.05392897129058838
1771525733849180700,2.8031806640625,0.05965476483106613,0.00798947736620903,-0.028362644836306572
1771525733859183400,2.813183349609375,0.05219791829586029,0.002663159044459462,-0.014514217153191566
1771525733869186000,2.82318603515625,0.04474107176065445,0.0037284228019416332,-0.018775271251797676
1771525733879188700,2.833188720703125,0.03515370190143585,0.006924213841557503,-0.031558435410261154
1771525733889191400,2.84319140625,0.029827382415533066,0.0037284228019416332,-0.04008054360747337
1771525733899194000,2.853194091796875,0.0330231711268425,-0.004793686326593161,-0.050733182579278946
1771525733909196500,2.863196533203125,0.03621896356344223,-0.005858949851244688,-0.06671213358640671
1771525733929202000,2.883201904296875,0.046871598809957504,-0.002663159044459462,-0.08056056499481201
1771525733939204600,2.89320458984375,0.050067391246557236,0.010120004415512085,-0.08801741153001785
1771525733949207300,2.903207275390625,0.05113265663385391,0.01225053146481514,-0.09867004305124283
1771525733959210000,2.9132099609375,0.05219791829586029,-0.0037284228019416332,-0.11251847445964813
1771525733969212700,2.923212646484375,0.05326318368315697,-0.006924213841557503,-0.12423637509346008
1771525733979215400,2.93321533203125,0.04793686419725418,-0.009054740890860558,-0.12104058265686035
1771525733989217800,2.9432177734375,0.041545283049345016,-0.021837905049324036,-0.11145320534706116
1771525733999220500,2.953220458984375,0.029827382415533066,-0.03568633273243904,-0.11358373612165451
1771525734009223200,2.96322314453125,0.010652636177837849,-0.046338967978954315,-0.12636689841747284
1771525734019225900,2.973225830078125,-0.0074568456038832664,-0.053795814514160156,-0.14447638392448425
1771525734029228500,2.983228515625,-0.022370535880327225,-0.053795814514160156,-0.14980269968509674
1771525734039231200,2.993231201171875,-0.03728422895073891,-0.042077913880348206,-0.14341111481189728
1771525734049234000,3.00323388671875,-0.046871598809957504,-0.02396843209862709,-0.13062795996665955
1771525734059236600,3.013236572265625,-0.050067391246557236,-0.01225053146481514,-0.10612688958644867
1771525734069239300,3.0232392578125,-0.04900212585926056,-0.004793686326593161,-0.08375635743141174
1771525734079242000,3.033241943359375,-0.050067391246557236,-0.0015978955198079348,-0.08482161909341812
1771525734089244700,3.04324462890625,-0.05539371073246002,0.005858949851244688,-0.10293109714984894
1771525734099247600,3.05324755859375,-0.061785291880369186,0.01438105944544077,-0.12210584431886673
1771525734109250300,3.063250244140625,-0.0703074038028717,0.033555805683135986,-0.12317110598087311
1771525734119253000,3.0732529296875,-0.0798947736620903,0.050600022077560425,-0.11038794368505478
1771525734129255700,3.083255615234375,-0.08735162019729614,0.0516652874648571,-0.0954742506146431
1771525734139258400,3.09325830078125,-0.09587372839450836,0.050600022077560425,-0.08162582665681839
1771525734149261000,3.103260986328125,-0.10546109825372696,0.03675159439444542,-0.06351634114980698
1771525734159263700,3.113263671875,-0.1129179447889328,-0.004793686326593161,-0.04860265180468559
1771525734169266400,3.123266357421875,-0.1129179447889328,-0.04527370631694794,-0.04540686309337616
1771525734179269000,3.13326904296875,-0.11078742146492004,-0.07936213910579681,-0.054994236677885056
1771525734189271800,3.143271728515625,-0.1033305749297142,-0.10279794037342072,-0.06884266436100006
1771525734199274500,3.1532744140625,-0.09374319761991501,-0.10599373281002045,-0.06777740269899368
1771525734209277200,3.163277099609375,-0.08202529698610306,-0.07616634666919708,-0.04221107065677643
1771525734219280000,3.17327978515625,-0.05965476483106613,-0.054861076176166534,0.001464737462811172
1771525734229282800,3.18328271484375,-0.04793686419725418,-0.053795814514160156,0.04194475710391998
1771525734239285500,3.193285400390625,-0.03941475600004196,-0.046338967978954315,0.0504668653011322
1771525734249288200,3.2032880859375,-0.041545283049345016,-0.03994738683104515,0.03555317223072052
1771525734259291000,3.213290771484375,-0.05539371073246002,-0.01438105944544077,-0.010253162123262882
1771525734269293600,3.22329345703125,-0.07137266546487808,0.01225053146481514,-0.0762995108962059
1771525734279296300,3.233296142578125,-0.07456845790147781,0.03142527863383293,-0.14128059148788452
1771525734289299000,3.243298828125,-0.0703074038028717,0.0516652874648571,-0.1988048255443573
1771525734299301600,3.253301513671875,-0.05113265663385391,0.0655137151479721,-0.23928484320640564
1771525734309304300,3.26330419921875,-0.019174745306372643,0.06018739566206932,-0.2552638053894043
1771525734319307000,3.27330712890625,0.012783164158463478,0.046338967978954315,-0.2637858986854553
1771525734329309700,3.283309814453125,0.03728422895073891,0.021837905049324036,-0.2840259075164795
1771525734339312400,3.2933125,0.05965476483106613,-0.009054740890860558,-0.28189539909362793
1771525734349315000,3.303315185546875,0.07563371956348419,-0.03249054029583931,-0.2456764280796051
1771525734359318000,3.313318115234375,0.08202529698610306,-0.04101264849305153,-0.19241324067115784
1771525734369320700,3.32332080078125,0.07563371956348419,-0.04420844092965126,-0.1327584832906723
1771525734379323400,3.333323486328125,0.05752423778176308,-0.03994738683104515,-0.09014793485403061
1771525734389326000,3.343326171875,0.03195790946483612,-0.02396843209862709,-0.07310371845960617
1771525734399328800,3.353328857421875,0.011717899702489376,-0.020772641524672508,-0.08482161909341812
1771525734409331500,3.36333154296875,-0.0031957910396158695,-0.01225053146481514,-0.10612688958644867
1771525734419334100,3.373334228515625,-0.006391582079231739,-0.009054740890860558,-0.12423637509346008
1771525734429336800,3.3833369140625,-0.004261054564267397,-0.011185267940163612,-0.1380847990512848
1771525734439339500,3.393339599609375,0.009587372653186321,-0.015446322970092297,-0.146606907248497
1771525734449342200,3.40334228515625,0.0330231711268425,-0.04101264849305153,-0.14341111481189728
1771525734459345000,3.413344970703125,0.05219791829586029,-0.061252661049366,-0.14128059148788452
1771525734469347600,3.42334765625,0.061785291880369186,-0.06657897680997849,-0.14447638392448425
1771525734479350500,3.4333505859375,0.066046342253685,-0.04953476041555405,-0.14341111481189728
1771525734489353200,3.443353271484375,0.06817687302827835,-0.018642114475369453,-0.13595427572727203
1771525734499356000,3.45335595703125,0.06924213469028473,0.004793686326593161,-0.11784479022026062
1771525734509358600,3.463358642578125,0.07137266546487808,0.01438105944544077,-0.10186583548784256
1771525734519361300,3.473361328125,0.07882951200008392,0.022903168573975563,-0.08801741153001785
1771525734529364000,3.483364013671875,0.08309056609869003,0.030360013246536255,-0.06777740269899368
1771525734539366700,3.49336669921875,0.08628635853528976,0.03142527863383293,-0.043276336044073105
1771525734549369300,3.503369384765625,0.08841688185930252,0.030360013246536255,-0.027297381311655045
1771525734559372000,3.5133720703125,0.09480846673250198,0.002663159044459462,-0.014514217153191566
1771525734569374700,3.523374755859375,0.10652636736631393,-0.042077913880348206,-0.004926844500005245
1771525734579377400,3.53337744140625,0.11504847556352615,-0.08149266988039017,0.0003994738799519837
1771525734589380000,3.543380126953125,0.11504847556352615,-0.11025478690862656,-0.009187898598611355
1771525734599382800,3.5533828125,0.11185268312692642,-0.11984215676784515,-0.02197106182575226
1771525734609385700,3.5633857421875,0.1033305749297142,-0.12303794920444489,-0.02516685426235199
1771525734619388400,3.573388427734375,0.08415582776069641,-0.11664637178182602,-0.02090579830110073
1771525734629391000,3.58339111328125,0.05965476483106613,-0.09534109383821487,-0.013448953628540039
1771525734639393800,3.593393798828125,0.030892645940184593,-0.07190529257059097,0.006791055668145418
1771525734649396500,3.603396484375,0.0074568456038832664,-0.05699160322546959,0.01957421936094761
1771525734659399200,3.613399169921875,-0.012783164158463478,-0.053795814514160156,0.006791055668145418
1771525734669401900,3.62340185546875,-0.029827382415533066,-0.06444845348596573,-0.019840534776449203
1771525734679404500,3.633404541015625,-0.03728422895073891,-0.08575372397899628,-0.04008054360747337
1771525734689407200,3.6434072265625,-0.034088436514139175,-0.11984215676784515,-0.047537390142679214
1771525734699410000,3.653409912109375,-0.021305272355675697,-0.15712638199329376,-0.054994236677885056
1771525734709412600,3.66341259765625,-0.0010652636410668492,-0.16564849019050598,-0.06138581782579422
1771525734719415300,3.673415283203125,0.019174745306372643,-0.13475584983825684,-0.07416898012161255
1771525734729418200,3.683418212890625,0.04048001766204834,-0.06018739566206932,-0.09334372729063034
1771525734739421000,3.6934208984375,0.06072002649307251,0.06018739566206932,-0.11571425944566727
1771525734749423600,3.703423583984375,0.07776424288749695,0.18588849902153015,-0.1423458606004715
1771525734759426300,3.71342626953125,0.09800425171852112,0.28389275074005127,-0.17749954760074615
1771525734769429000,3.723428955078125,0.13315795361995697,0.3446127772331238,-0.22543641924858093
1771525734779431700,3.733431640625,0.16192007064819336,0.36059173941612244,-0.2648511826992035
1771525734789434400,3.743434326171875,0.16724638640880585,0.2998717129230499,-0.3032006621360779
1771525734799437000,3.75343701171875,0.15765902400016785,0.19441060721874237,-0.3692470192909241
1771525734809439700,3.763439697265625,0.11930952966213226,0.07190529257059097,-0.4395544230937958
1771525734819442400,3.7734423828125,0.061785291880369186,-0.050600022077560425,-0.49281758069992065
1771525734829445000,3.783445068359375,-0.0010652636410668492,-0.13262532651424408,-0.4725775718688965
1771525734839447800,3.79344775390625,-0.061785291880369186,-0.19121482968330383,-0.36498594284057617
1771525734849450500,3.803450439453125,-0.10226531326770782,-0.23915168642997742,-0.21052272617816925
1771525734859453400,3.813453369140625,-0.11611373722553253,-0.2444780021905899,-0.018775271251797676
1771525734869456100,3.8234560546875,-0.10013478249311447,-0.2636527419090271,0.18895113468170166
1771525734879458800,3.833458740234375,-0.06391581892967224,-0.26578328013420105,0.350871205329895
1771525734889461500,3.84346142578125,-0.02450106292963028,-0.23595589399337769,0.4360923171043396
1771525734899464200,3.853464111328125,-0.005326318088918924,-0.1837579756975174,0.42543965578079224
1771525734909467000,3.863466796875,-0.010652636177837849,-0.08681898564100266,0.33595752716064453
1771525734919469600,3.873469482421875,-0.022370535880327225,0.03994738683104515,0.20493009686470032
1771525734929472300,3.88347216796875,-0.03941475600004196,0.15712638199329376,0.07070687413215637
1771525734939475000,3.893474853515625,-0.04900212585926056,0.24660852551460266,-0.06458161026239395
1771525734949477600,3.9034775390625,-0.03941475600004196,0.3062632977962494,-0.1753690242767334
1771525734959480300,3.913480224609375,-0.013848427683115005,0.33715593814849854,-0.2510027587413788
1771525734969483000,3.92348291015625,0.02450106292963028,0.32330751419067383,-0.2882869839668274
1771525734979485700,3.933485595703125,0.06924213469028473,0.26471802592277527,-0.2978743314743042
1771525734989488600,3.943488525390625,0.10865689069032669,0.1784316599369049,-0.2893522381782532
1771525734999491300,3.9534912109375,0.12996216118335724,0.08681898564100266,-0.2659164369106293
1771525735019496700,3.97349658203125,0.06498108059167862,0.005858949851244688,-0.15406376123428345
1771525735029499400,3.98349951171875,-0.014913691207766533,0.026098959147930145,-0.07416898012161255
1771525735039502000,3.993502197265625,-0.10439583659172058,0.04953476041555405,-0.004926844500005245
1771525735049504800,4.0035048828125,-0.17683376371860504,0.06977476924657822,0.04407528415322304
1771525735059507500,4.013507568359375,-0.2077264040708542,0.07936213910579681,0.09094688296318054
1771525735069510100,4.02351025390625,-0.2066611498594284,0.07190529257059097,0.13675321638584137
1771525735079512800,4.033512939453125,-0.17576849460601807,0.058056868612766266,0.17616797983646393
1771525735089515500,4.043515625,-0.1267663687467575,0.037816859781742096,0.2006690353155136
1771525735099518200,4.053518310546875,-0.08628635853528976,0.03675159439444542,0.18895113468170166
1771525735109521200,4.063521240234375,-0.058589499443769455,0.061252661049366,0.15273217856884003
1771525735119523800,4.07352392578125,-0.04048001766204834,0.0751010850071907,0.11225215345621109
1771525735129526500,4.083526611328125,-0.02876211889088154,0.08788424730300903,0.0834900364279747
1771525735139529200,4.093529296875,-0.02024000883102417,0.10173267871141434,0.08135951310396194
1771525735149532000,4.103531982421875,-0.017044218257069588,0.10066741704940796,0.10479531437158585
1771525735159534600,4.11353466796875,-0.018109481781721115,0.10279794037342072,0.1303616315126419
1771525735169537300,4.123537353515625,-0.012783164158463478,0.10599373281002045,0.1495363861322403
1771525735179540000,4.1335400390625,-0.0010652636410668492,0.09108003973960876,0.18042902648448944
1771525735189542700,4.143542724609375,0.0074568456038832664,0.0708400309085846,0.20173430442810059
1771525735199545300,4.15354541015625,0.011717899702489376,0.038882121443748474,0.19001640379428864
1771525735209548000,4.163548095703125,0.013848427683115005,-0.0005326318205334246,0.16445007920265198
1771525735219550700,4.17355078125,0.011717899702489376,-0.03568633273243904,0.1356879621744156
1771525735229553400,4.183553466796875,0.005326318088918924,-0.05273054912686348,0.12503531575202942
1771525735239556400,4.193556396484375,0.004261054564267397,-0.07190529257059097,0.1442100703716278
1771525735249559000,4.20355908203125,0.0031957910396158695,-0.09001477807760239,0.18042902648448944
1771525735259561700,4.213561767578125,0.005326318088918924,-0.09747162461280823,0.219843789935112
1771525735269564400,4.223564453125,0.013848427683115005,-0.09960214793682098,0.2539322078227997
1771525735279567000,4.233567138671875,0.026631591841578484,-0.12410321086645126,0.26884591579437256
1771525735289569800,4.24356982421875,0.023435799404978752,-0.16138744354248047,0.2528669536113739
1771525735299572500,4.253572509765625,0.012783164158463478,-0.2071937769651413,0.21771325170993805
1771525735309575200,4.2635751953125,0.0021305272821336985,-0.26152223348617554,0.18788588047027588
1771525735319577900,4.273577880859375,-0.0031957910396158695,-0.31158962845802307,0.17403744161128998
1771525735329580500,4.28358056640625,-0.006391582079231739,-0.3669833242893219,0.18042902648448944
1771525735339583200,4.293583251953125,-0.0074568456038832664,-0.41705071926116943,0.19747324287891388
1771525735349586000,4.3035859375,-0.013848427683115005,-0.4415517747402191,0.20706062018871307
1771525735359588600,4.313588623046875,-0.022370535880327225,-0.456465482711792,0.20812588930130005
1771525735369591300,4.32359130859375,-0.05219791829586029,-0.44368231296539307,0.17936377227306366
1771525735379594000,4.333593994140625,-0.10652636736631393,-0.408528596162796,0.10799109935760498
1771525735389596700,4.3435966796875,-0.16831165552139282,-0.36485278606414795,0.011052110232412815
1771525735399599400,4.353599365234375,-0.2258358895778656,-0.31158962845802307,-0.09867004305124283
1771525735409602000,4.36360205078125,-0.25246748328208923,-0.2721748650074005,-0.18389113247394562
1771525735419604700,4.373604736328125,-0.2300969511270523,-0.27110961079597473,-0.19773955643177032
1771525735429607200,4.383607177734375,-0.17470324039459229,-0.29880645871162415,-0.12317110598087311
1771525735439609900,4.39360986328125,-0.09480846673250198,-0.34035173058509827,0.030226856470108032
1771525735449612500,4.403612548828125,-0.010652636177837849,-0.3808317482471466,0.20279955863952637
1771525735459615200,4.413615234375,0.038349490612745285,-0.3755054473876953,0.3008038103580475
1771525735469618000,4.423617919921875,0.04048001766204834,-0.3211769759654999,0.2986733019351959
1771525735479620600,4.43362060546875,0.008522109128534794,-0.2551306486129761,0.23156169056892395
1771525735489623300,4.443623291015625,-0.04474107176065445,-0.19014956057071686,0.11331742256879807
1771525735499626000,4.4536259765625,-0.10865689069032669,-0.13049480319023132,-0.04860265180468559
1771525735509628400,4.46362841796875,-0.14700637757778168,-0.09214530140161514,-0.2222406268119812
1771525735519631000,4.473631103515625,-0.14487585425376892,-0.08149266988039017,-0.3735080659389496
1771525735529633800,4.4836337890625,-0.10120004415512085,-0.08894951641559601,-0.4810996949672699
1771525735539636500,4.493636474609375,-0.02450106292963028,-0.09960214793682098,-0.5311670899391174
1771525735549639200,4.50363916015625,0.066046342253685,-0.09534109383821487,-0.5162534117698669
1771525735559641900,4.513641845703125,0.13954953849315643,-0.08681898564100266,-0.4523375630378723
1771525735569644500,4.52364453125,0.18535587191581726,-0.07403582334518433,-0.37563860416412354
1771525735579647200,4.533647216796875,0.1970737725496292,-0.058056868612766266,-0.29893961548805237
1771525735589649700,4.543649658203125,0.18535587191581726,-0.037816859781742096,-0.21052272617816925
1771525735599652400,4.55365234375,0.15446323156356812,-0.018642114475369453,-0.10825742036104202
1771525735609655000,4.563655029296875,0.11185268312692642,-0.011185267940163612,-0.027297381311655045
1771525735619657700,4.57365771484375,0.0798947736620903,-0.01438105944544077,0.01850895583629608
1771525735629660400,4.583660400390625,0.05752423778176308,-0.053795814514160156,0.045140545815229416
1771525735639663000,4.5936630859375,0.04793686419725418,-0.10599373281002045,0.07070687413215637
1771525735649665800,4.603665771484375,0.050067391246557236,-0.13475584983825684,0.0834900364279747
1771525735659668500,4.61366845703125,0.04793686419725418,-0.12942953407764435,0.11225215345621109
1771525735669671000,4.6236708984375,0.05539371073246002,-0.10705899447202682,0.14207953214645386
1771525735679673600,4.633673583984375,0.0703074038028717,-0.07936213910579681,0.1537974327802658
1771525735689676300,4.64367626953125,0.0798947736620903,-0.042077913880348206,0.1591237634420395
1771525735699679000,4.653678955078125,0.07882951200008392,0.011185267940163612,0.16551533341407776
1771525735709681700,4.663681640625,0.06817687302827835,0.07829687744379044,0.16658060252666473
1771525735719684400,4.673684326171875,0.05219791829586029,0.1368863731622696,0.16551533341407776
1771525735729687300,4.683687255859375,0.038349490612745285,0.19867166876792908,0.1921469271183014
1771525735739690000,4.69368994140625,0.026631591841578484,0.22423799335956573,0.23795326054096222
1771525735749692700,4.703692626953125,0.022370535880327225,0.21784640848636627,0.2720417082309723
1771525735759695400,4.7136953125,0.026631591841578484,0.1688442826271057,0.3039996027946472
1771525735769698000,4.723697998046875,0.029827382415533066,0.1038632020354271,0.32104381918907166
1771525735779700700,4.73370068359375,0.022370535880327225,0.046338967978954315,0.3039996027946472
1771525735789703400,4.743703369140625,0.009587372653186321,0.022903168573975563,0.27949854731559753
1771525735799706000,4.7537060546875,0.0031957910396158695,0.011185267940163612,0.2656501233577728
1771525735809708800,4.763708740234375,0.012783164158463478,-0.0015978955198079348,0.25499749183654785
1771525735819711500,4.77371142578125,0.034088436514139175,-0.0005326318205334246,0.2390185296535492
1771525735829714200,4.783714111328125,0.054328445345163345,0.0037284228019416332,0.22303956747055054
1771525735839716900,4.793716796875,0.07563371956348419,0.009054740890860558,0.1868206113576889
1771525735849719600,4.803719482421875,0.09480846673250198,-0.021837905049324036,0.1356879621744156
1771525735859722500,4.813722412109375,0.11398320645093918,-0.058056868612766266,0.08562056720256805
1771525735869725200,4.82372509765625,0.122505322098732,-0.09108003973960876,0.061119500547647476
1771525735879727900,4.833727783203125,0.12357058376073837,-0.12410321086645126,0.07922898232936859
1771525735889730600,4.84373046875,0.1129179447889328,-0.14860427379608154,0.13249216973781586
1771525735899733200,4.853733154296875,0.07776424288749695,-0.17097482085227966,0.19853851199150085
1771525735909736000,4.86373583984375,0.02024000883102417,-0.12516847252845764,0.2528669536113739
1771525735919738600,4.873738525390625,-0.042610544711351395,-0.04953476041555405,0.28269433975219727
1771525735929741300,4.8837412109375,-0.122505322098732,0.03994738683104515,0.25073641538619995
1771525735939744000,4.893743896484375,-0.18748639523983002,0.17949692904949188,0.14101427793502808
1771525735949746700,4.90374658203125,-0.20879167318344116,0.3020022511482239,0.011052110232412815
1771525735959749400,4.913749267578125,-0.15659375488758087,0.332894891500473,-0.08801741153001785
1771525735969752000,4.923751953125,-0.05219791829586029,0.27110961079597473,-0.1519332230091095
1771525735979755000,4.933755126953125,0.07243792712688446,0.15286533534526825,-0.1849564015865326
1771525735989757700,4.9437578125,0.17470324039459229,0.013315795920789242,-0.21158799529075623
1771525735999760400,4.953760498046875,0.22477063536643982,-0.10492847114801407,-0.2456764280796051
1771525736009763000,4.96376318359375,0.2077264040708542,-0.18162745237350464,-0.2914827764034271
1771525736019765800,4.973765869140625,0.12463584542274475,-0.20506325364112854,-0.34581121802330017
1771525736029768400,4.9837685546875,0.013848427683115005,-0.1826927214860916,-0.3916175365447998
1771525736039771100,4.993771240234375,-0.09374319761991501,-0.10173267871141434,-0.40866175293922424
1771525736049773800,5.00377392578125,-0.1693769246339798,-0.006924213841557503,-0.39481332898139954
1771525736059776500,5.013776611328125,-0.2024000883102417,0.09747162461280823,-0.37457332015037537
1771525736069779200,5.023779296875,-0.2077264040708542,0.2071937769651413,-0.3500722646713257
1771525736079782000,5.033781982421875,-0.1928127259016037,0.3009369671344757,-0.31811434030532837
1771525736089784600,5.04378466796875,-0.16405059397220612,0.3723096549510956,-0.2744385600090027
1771525736099787300,5.053787353515625,-0.12357058376073837,0.39681071043014526,-0.22011010348796844
1771525736109790200,5.063790283203125,-0.0798947736620903,0.3563306927680969,-0.1615206003189087
1771525736119793000,5.07379296875,-0.03728422895073891,0.2593916952610016,-0.12317110598087311
1771525736129795600,5.083795654296875,-0.0010652636410668492,0.1603221744298935,-0.10080057382583618
1771525736139798300,5.09379833984375,0.013848427683115005,0.062317922711372375,-0.07310371845960617
1771525736149801000,5.103801025390625,0.004261054564267397,0.005858949851244688,-0.031558435410261154
1771525736159803600,5.1138037109375,-0.014913691207766533,-0.046338967978954315,0.011052110232412815
1771525736169806300,5.123806396484375,-0.021305272355675697,-0.10705899447202682,0.040879491716623306
1771525736179809000,5.13380908203125,-0.014913691207766533,-0.1837579756975174,0.05792371183633804
1771525736189811700,5.143811767578125,0.0031957910396158695,-0.24554327130317688,0.06325002759695053
1771525736199814400,5.153814453125,0.022370535880327225,-0.26578328013420105,0.07177213579416275
1771525736209817000,5.163817138671875,0.0330231711268425,-0.2402169555425644,0.09520793706178665
1771525736219819800,5.17381982421875,0.03941475600004196,-0.1741705983877182,0.12183953076601028
1771525736229822700,5.18382275390625,0.03515370190143585,-0.08149266988039017,0.14207953214645386
1771525736239825400,5.193825439453125,0.026631591841578484,0.005858949851244688,0.15486270189285278
1771525736249828000,5.203828125,0.012783164158463478,0.08681898564100266,0.15592797100543976
1771525736259830800,5.213830810546875,0.006391582079231739,0.13262532651424408,0.13781848549842834
1771525736269833500,5.22383349609375,-0.0010652636410668492,0.14008216559886932,0.09414267539978027
1771525736279836200,5.233836181640625,-0.004261054564267397,0.1358211189508438,0.0600542388856411
1771525736289838800,5.2438388671875,0.005326318088918924,0.12836426496505737,0.0504668653011322
1771525736299841500,5.253841552734375,0.025566328316926956,0.1081242561340332,0.0930774137377739
1771525736309844200,5.26384423828125,0.04367581009864807,0.08362319320440292,0.1687111258506775
1771525736319847000,5.273846923828125,0.05219791829586029,0.07403582334518433,0.23688800632953644
1771525736329849600,5.283849609375,0.04900212585926056,0.061252661049366,0.27417221665382385
1771525736349855000,5.30385498046875,-0.008522109128534794,0.11025478690862656,0.2613890767097473
1771525736359858000,5.31385791015625,-0.02876211889088154,0.0516652874648571,0.2486059069633484
1771525736369860600,5.323860595703125,-0.054328445345163345,-0.03568633273243904,0.22197431325912476
1771525736379863300,5.33386328125,-0.06391581892967224,-0.11558110266923904,0.1868206113576889
1771525736389866000,5.343865966796875,-0.05539371073246002,-0.1741705983877182,0.18042902648448944
1771525736399868400,5.353868408203125,-0.03195790946483612,-0.211454838514328,0.1910816729068756
1771525736409871000,5.36387109375,0.012783164158463478,-0.2263685166835785,0.20279955863952637
1771525736419873800,5.373873779296875,0.0798947736620903,-0.221042200922966,0.23582273721694946
1771525736429876500,5.38387646484375,0.1502021700143814,-0.211454838514328,0.26458486914634705
1771525736439879200,5.393879150390625,0.2024000883102417,-0.19973693788051605,0.24541011452674866
1771525736449881900,5.4038818359375,0.2119874656200409,-0.19867166876792908,0.1729721873998642
1771525736459884500,5.413884521484375,0.1597895473241806,-0.21465063095092773,0.04194475710391998
1771525736469887200,5.42388720703125,0.07137266546487808,-0.20080219209194183,-0.12530162930488586
1771525736479889700,5.4338896484375,-0.021305272355675697,-0.16138744354248047,-0.24674169719219208
1771525736509897700,5.463897705078125,-0.08841688185930252,-0.19867166876792908,-0.11251847445964813
1771525736519900400,5.473900390625,-0.011717899702489376,-0.27537065744400024,0.025965800508856773
1771525736529903000,5.483903076171875,0.06072002649307251,-0.34567806124687195,0.11544794589281082
1771525736539905800,5.49390576171875,0.07137266546487808,-0.343547523021698,0.12397005409002304
1771525736549908500,5.503908447265625,0.018109481781721115,-0.29348012804985046,0.06751108169555664
1771525736559911000,5.513910888671875,-0.06391581892967224,-0.23382537066936493,-0.039015281945466995
1771525736569913600,5.52391357421875,-0.14700637757778168,-0.1645832359790802,-0.1700427085161209
1771525736579916300,5.533916259765625,-0.20879167318344116,-0.11558110266923904,-0.3074617087841034
1771525736589919000,5.5439189453125,-0.2300969511270523,-0.09001477807760239,-0.4352933466434479
1771525736599921700,5.553921630859375,-0.20133483409881592,-0.08894951641559601,-0.5205144286155701
1771525736609924400,5.56392431640625,-0.14381058514118195,-0.09321057051420212,-0.5439502596855164
1771525736619927000,5.573927001953125,-0.06924213469028473,-0.09321057051420212,-0.5301018357276917
1771525736639932200,5.59393212890625,0.08522108942270279,-0.11238531768321991,-0.44168493151664734
1771525736649934800,5.603934814453125,0.12037479132413864,-0.11451584100723267,-0.3735080659389496
1771525736659937500,5.6139375,0.12463584542274475,-0.11558110266923904,-0.30852699279785156
1771525736669940200,5.623940185546875,0.10652636736631393,-0.10492847114801407,-0.24461115896701813
1771525736679943000,5.63394287109375,0.07350318878889084,-0.08894951641559601,-0.1561942845582962
1771525736689945600,5.643945556640625,0.029827382415533066,-0.08042740821838379,-0.07310371845960617
1771525736699948300,5.6539482421875,-0.008522109128534794,-0.08042740821838379,-0.005992108024656773
1771525736709951000,5.663950927734375,-0.025566328316926956,-0.10173267871141434,0.03235738351941109
1771525736719953400,5.673953369140625,-0.018109481781721115,-0.13475584983825684,0.029161592945456505
1771525736729956000,5.6839560546875,0.004261054564267397,-0.1688442826271057,0.01850895583629608
1771525736739958800,5.693958740234375,0.025566328316926956,-0.17310534417629242,0.016378428786993027
1771525736749961500,5.70396142578125,0.046871598809957504,-0.13475584983825684,0.01850895583629608
1771525736759964200,5.713964111328125,0.05752423778176308,-0.0655137151479721,0.030226856470108032
1771525736769966800,5.723966796875,0.06285055726766586,0.015446322970092297,0.053662657737731934
1771525736779969500,5.733969482421875,0.06817687302827835,0.09321057051420212,0.07816372066736221
1771525736789972200,5.74397216796875,0.08096003532409668,0.15712638199329376,0.09840372949838638
1771525736799974700,5.753974609375,0.10013478249311447,0.19867166876792908,0.1165132075548172
1771525736809977300,5.763977294921875,0.11185268312692642,0.22317273914813995,0.13781848549842834
1771525736819980000,5.77397998046875,0.10972215235233307,0.2444780021905899,0.1399490088224411
1771525736829983000,5.78398291015625,0.10013478249311447,0.2444780021905899,0.12503531575202942
1771525736839985700,5.793985595703125,0.10013478249311447,0.2018674612045288,0.11331742256879807
1771525736849988400,5.80398828125,0.11185268312692642,0.12090742588043213,0.11438268423080444
1771525736859991000,5.813990966796875,0.11824426054954529,0.029294749721884727,0.12823110818862915
1771525736869993700,5.82399365234375,0.12144005298614502,-0.053795814514160156,0.15699322521686554
1771525736879996400,5.833996337890625,0.11717899888753891,-0.10492847114801407,0.2059953510761261
1771525736889999000,5.8439990234375,0.0990695208311081,-0.0942758321762085,0.2667153775691986
1771525736900001800,5.854001708984375,0.06817687302827835,-0.06764423847198486,0.32956594228744507
1771525736910004500,5.86400439453125,0.03941475600004196,-0.06977476924657822,0.3519364893436432
1771525736920007200,5.874007080078125,0.01597895473241806,-0.10918952524662018,0.30719539523124695
1771525736930009900,5.884009765625,-0.0010652636410668492,-0.10918952524662018,0.22303956747055054
1771525736940012500,5.894012451171875,-0.0010652636410668492,-0.0846884623169899,0.17190691828727722
1771525736950015200,5.90401513671875,0.008522109128534794,0.0005326318205334246,0.1687111258506775
1771525736960018200,5.91401806640625,0.025566328316926956,0.06764423847198486,0.18575534224510193
1771525736970020900,5.924020751953125,0.034088436514139175,0.20293273031711578,0.14101427793502808
1771525736980023600,5.9340234375,-0.010652636177837849,0.3094590902328491,0.03555317223072052
1771525736990026200,5.944026123046875,-0.06498108059167862,0.36485278606414795,-0.10293109714984894
1771525737000029000,5.95402880859375,-0.08415582776069641,0.3520696461200714,-0.2456764280796051
1771525737010031600,5.964031494140625,-0.05752423778176308,0.28815382719039917,-0.31811434030532837
1771525737020034300,5.974034423828125,-0.006391582079231739,0.20293273031711578,-0.2840259075164795
1771525737030037000,5.984037109375,0.041545283049345016,0.1315600574016571,-0.1700427085161209
1771525737040039700,5.994039794921875,0.06391581892967224,0.08788424730300903,-0.031558435410261154
1771525737050042400,6.00404248046875,0.03728422895073891,0.09001477807760239,0.03555317223072052
1771525737060045000,6.014045166015625,-0.02769685536623001,0.09640636295080185,0.0003994738799519837
1771525737070047700,6.0240478515625,-0.10546109825372696,0.09321057051420212,-0.10293109714984894
1771525737080050700,6.03405078125,-0.18961693346500397,0.08681898564100266,-0.2360890507698059
1771525737090053400,6.044053466796875,-0.2588590681552887,0.06444845348596573,-0.4107922911643982
1771525737100056000,6.05405615234375,-0.2865559160709381,0.0655137151479721,-0.600409209728241
1771525737110058800,6.064058837890625,-0.2780338227748871,0.10492847114801407,-0.7069355845451355
1771525737120061400,6.0740615234375,-0.23755379021167755,0.19441060721874237,-0.7037398219108582
1771525737130064100,6.084064208984375,-0.18961693346500397,0.2966759204864502,-0.6259755492210388
1771525737140066800,6.09406689453125,-0.1406148076057434,0.3616569936275482,-0.5450155138969421
1771525737150069500,6.104069580078125,-0.10013478249311447,0.3573959469795227,-0.48429548740386963
1771525737160072200,6.114072265625,-0.07669898122549057,0.31265488266944885,-0.4395544230937958
1771525737170075000,6.124074951171875,-0.06711161136627197,0.22849905490875244,-0.39907440543174744
1771525737180077600,6.13407763671875,-0.06072002649307251,0.11238531768321991,-0.3532680571079254
1771525737190080300,6.144080322265625,-0.05752423778176308,-0.006924213841557503,-0.2914827764034271
1771525737200083000,6.1540830078125,-0.050067391246557236,-0.10173267871141434,-0.21052272617816925
1771525737210086000,6.1640859375,-0.04367581009864807,-0.16138744354248047,-0.11464899778366089
1771525737220088600,6.174088623046875,-0.03621896356344223,-0.18695376813411713,-0.030493171885609627
1771525737230091300,6.18409130859375,-0.02024000883102417,-0.19121482968330383,0.04407528415322304
1771525737240094000,6.194093994140625,-0.019174745306372643,-0.16138744354248047,0.10266478359699249
1771525737250096600,6.2040966796875,-0.030892645940184593,-0.14008216559886932,0.15592797100543976
1771525737260099300,6.214099365234375,-0.03941475600004196,-0.09001477807760239,0.1772332340478897
1771525737270102000,6.22410205078125,-0.058589499443769455,-0.011185267940163612,0.16658060252666473
1771525737280104700,6.234104736328125,-0.061785291880369186,0.0846884623169899,0.16658060252666473
1771525737290107400,6.244107421875,-0.05539371073246002,0.1933453530073166,0.17510271072387695
1771525737300110000,6.254110107421875,-0.04900212585926056,0.3051980435848236,0.20173430442810059
1771525737330118100,6.2841181640625,0.038349490612745285,0.4617917835712433,0.2347574681043625
1771525737340120800,6.294120849609375,0.0564589723944664,0.4596612751483917,0.2518016993999481
1771525737350123500,6.30412353515625,0.066046342253685,0.4149201810359955,0.2709764242172241
1771525737360126200,6.314126220703125,0.06391581892967224,0.34674331545829773,0.3093259334564209
1771525737370129000,6.32412890625,0.05326318368315697,0.24767379462718964,0.36258912086486816
1771525737380131600,6.334131591796875,0.03728422895073891,0.1177116334438324,0.40946072340011597
1771525737390134300,6.34413427734375,0.018109481781721115,-0.01225053146481514,0.43502703309059143
1771525737400136700,6.35413671875,-0.005326318088918924,-0.08788424730300903,0.4265049397945404
1771525737410139400,6.364139404296875,-0.011717899702489376,-0.2444780021905899,0.37750279903411865
1771525737420142000,6.37414208984375,-0.03728422895073891,-0.33182963728904724,0.3604585826396942
1771525737430144800,6.384144775390625,-0.06072002649307251,-0.3478085696697235,0.3647196292877197
1771525737440147500,6.3941474609375,-0.07882951200008392,-0.335025429725647,0.34447962045669556
1771525737450150100,6.404150146484375,-0.08628635853528976,-0.29454538226127625,0.3327617347240448
1771525737460152800,6.41415283203125,-0.06924213469028473,-0.23382537066936493,0.35939332842826843
1771525737470155500,6.424155517578125,-0.03728422895073891,-0.1645832359790802,0.3892207145690918
1771525737480158000,6.434157958984375,-0.0330231711268425,-0.11238531768321991,0.3998733460903168
1771525737490160600,6.44416064453125,-0.09480846673250198,-0.0655137151479721,0.36791542172431946
1771525737500163300,6.454163330078125,-0.21518325805664062,-0.002663159044459462,0.2720417082309723
1771525737510166000,6.464166015625,-0.33129698038101196,0.06338318437337875,0.1825595498085022
1771525737520168700,6.474168701171875,-0.40693071484565735,0.10492847114801407,0.1261005848646164
1771525737530171400,6.48417138671875,-0.4101265072822571,0.11984215676784515,0.11331742256879807
1771525737540174000,6.494174072265625,-0.34621068835258484,0.07723161578178406,0.1729721873998642
1771525737550176800,6.5041767578125,-0.2545980215072632,0.011185267940163612,0.26458486914634705
1771525737560179200,6.51417919921875,-0.19494324922561646,0.10918952524662018,0.37324175238609314
1771525737570182000,6.524181884765625,-0.14274533092975616,0.0942758321762085,0.45207124948501587
1771525737580184600,6.5341845703125,-0.19068218767642975,0.013315795920789242,0.35939332842826843
1771525737590187300,6.544187255859375,-0.2620548605918884,0.053795814514160156,0.19853851199150085
1771525737600190000,6.55418994140625,-0.32170963287353516,0.061252661049366,0.007856319658458233
1771525737610192600,6.564192626953125,-0.3536675274372101,0.061252661049366,-0.15512901544570923
1771525737620195300,6.5741953125,-0.3419496417045593,0.0655137151479721,-0.25313326716423035
1771525737630198000,6.584197998046875,-0.30253487825393677,0.07190529257059097,-0.29574382305145264
1771525737650203100,6.604203125,-0.16831165552139282,0.08362319320440292,-0.3063964545726776
1771525737660205800,6.614205810546875,-0.07776424288749695,0.06338318437337875,-0.27763432264328003
1771525737670208500,6.62420849609375,0.022370535880327225,-0.01438105944544077,-0.23502379655838013
1771525737680211200,6.634211181640625,0.12996216118335724,-0.12623374164104462,-0.18602167069911957
1771525737690214000,6.6442138671875,0.18961693346500397,-0.18908429145812988,-0.1423458606004715
1771525737700216600,6.654216552734375,0.20133483409881592,-0.1976063996553421,-0.0762995108962059
1771525737710219300,6.66421923828125,0.1651158630847931,-0.1454084813594818,0.001464737462811172
1771525737720221700,6.6742216796875,0.11398320645093918,-0.0985368862748146,0.0600542388856411
1771525737730224400,6.684224365234375,0.06817687302827835,-0.046338967978954315,0.09201214462518692
1771525737740227000,6.69422705078125,0.03941475600004196,0.015446322970092297,0.11438268423080444
1771525737750229800,6.704229736328125,0.03621896356344223,0.053795814514160156,0.11970899999141693
1771525737760232400,6.714232421875,0.066046342253685,0.054861076176166534,0.08881635963916779
1771525737770235100,6.724235107421875,0.11398320645093918,0.038882121443748474,0.024900536984205246
1771525737780237800,6.73423779296875,0.16298533976078033,0.004793686326593161,-0.03262370079755783
1771525737790240500,6.744240478515625,0.20879167318344116,-0.030360013246536255,-0.07416898012161255
1771525737800243000,6.754242919921875,0.24607589840888977,-0.06444845348596573,-0.10612688958644867
1771525737810245600,6.76424560546875,0.2780338227748871,-0.10918952524662018,-0.11677952855825424
1771525737820248300,6.774248291015625,0.30786117911338806,-0.15606112778186798,-0.10825742036104202
1771525737830251000,6.7842509765625,0.32277488708496094,-0.17949692904949188,-0.10186583548784256
1771525737840253700,6.794253662109375,0.3153180480003357,-0.18482324481010437,-0.0762995108962059
1771525737850256400,6.80425634765625,0.2833601236343384,-0.18482324481010437,-0.03262370079755783
1771525737860259000,6.814259033203125,0.23222747445106506,-0.17310534417629242,0.004660528618842363
1771525737870261800,6.82426171875,0.17257271707057953,-0.14434322714805603,0.025965800508856773
1771525737880264400,6.834264404296875,0.13209268450737,-0.12303794920444489,0.0270310640335083
1771525737890267100,6.84426708984375,0.11078742146492004,-0.053795814514160156,0.0003994738799519837
1771525737900269800,6.854269775390625,0.10013478249311447,-0.002663159044459462,-0.0070573715493083
1771525737910272500,6.8642724609375,0.11504847556352615,0.03675159439444542,0.0035952648613601923
1771525737920275200,6.874275146484375,0.12783163785934448,0.09747162461280823,-0.010253162123262882
1771525737930278000,6.88427783203125,0.13848426938056946,0.1464737504720688,-0.039015281945466995
1771525737940280600,6.894280517578125,0.15446323156356812,0.17736639082431793,-0.07736477255821228
1771525737950283300,6.904283203125,0.16618113219738007,0.16245271265506744,-0.1380847990512848
1771525737960286000,6.914285888671875,0.18535587191581726,0.1411474347114563,-0.1796300858259201
1771525737970288600,6.92428857421875,0.1789642870426178,0.12516847252845764,-0.19134798645973206
1771525737980291300,6.934291259765625,0.14913691580295563,0.15180006623268127,-0.1849564015865326
1771525737990294300,6.944294189453125,0.12463584542274475,0.2071937769651413,-0.17749954760074615
1771525738000297000,6.954296875,0.09800425171852112,0.29880645871162415,-0.2275669425725937
1771525738010299600,6.964299560546875,0.05326318368315697,0.3904191255569458,-0.3575291037559509
1771525738030305000,6.984304931640625,0.009587372653186321,0.32330751419067383,-0.8028092980384827
1771525738040307700,6.9943076171875,0.05326318368315697,0.17310534417629242,-0.9689904451370239
1771525738050310400,7.004310302734375,0.11717899888753891,0.022903168573975563,-0.993491530418396
1771525738060313000,7.01431298828125,0.1832253485918045,-0.0942758321762085,-0.8443545699119568
1771525738070315800,7.024315673828125,0.2077264040708542,-0.18482324481010437,-0.5961481928825378
1771525738090321200,7.044321044921875,0.06711161136627197,-0.20080219209194183,-0.18815219402313232
1771525738100323800,7.05432373046875,-0.02876211889088154,-0.12516847252845764,-0.04434159770607948
1771525738110326800,7.064326904296875,-0.16831165552139282,-0.03568633273243904,0.024900536984205246
1771525738130332200,7.084332275390625,-0.2545980215072632,0.04846949502825737,-0.20945745706558228
1771525738140334800,7.0943349609375,-0.2205095738172531,0.04953476041555405,-0.3127880394458771
1771525738150337500,7.104337646484375,-0.16085481643676758,0.07936213910579681,-0.35646384954452515
1771525738160340200,7.11434033203125,-0.08628635853528976,0.11451584100723267,-0.33835434913635254
1771525738170343000,7.124343017578125,-0.026631591841578484,0.15180006623268127,-0.2914827764034271
1771525738180345600,7.134345703125,0.026631591841578484,0.14327795803546906,-0.2275669425725937
1771525738190348300,7.144348388671875,0.06285055726766586,0.0942758321762085,-0.1796300858259201
1771525738200351000,7.15435107421875,0.07669898122549057,0.01970737800002098,-0.15406376123428345
1771525738210353700,7.164353759765625,0.07243792712688446,-0.04740423336625099,-0.118910051882267
1771525738230359000,7.184359130859375,0.018109481781721115,-0.08255793154239655,-0.02197106182575226
1771525738240362000,7.194362060546875,-0.011717899702489376,-0.07190529257059097,0.033422645181417465
1771525738250364700,7.20436474609375,-0.029827382415533066,-0.054861076176166534,0.08455529808998108
1771525738260367400,7.214367431640625,-0.03941475600004196,-0.037816859781742096,0.13675321638584137
1771525738270370000,7.2243701171875,-0.03621896356344223,-0.018642114475369453,0.16658060252666473
1771525738280372700,7.234372802734375,-0.01597895473241806,-0.01225053146481514,0.16018901765346527
1771525738290375400,7.24437548828125,0.026631591841578484,-0.011185267940163612,0.15805849432945251
1771525738300378000,7.254378173828125,0.07456845790147781,0.010120004415512085,0.17829850316047668
1771525738310380500,7.264380615234375,0.1129179447889328,0.042077913880348206,0.20173430442810059
1771525738320383200,7.27438330078125,0.1406148076057434,0.06870950758457184,0.2241048365831375
1771525738330386000,7.284385986328125,0.13528847694396973,0.10066741704940796,0.23049642145633698
1771525738340388600,7.294388671875,0.10120004415512085,0.13795164227485657,0.21664799749851227
1771525738350391300,7.304391357421875,0.04793686419725418,0.1592569202184677,0.1964079886674881
1771525738360394000,7.31439404296875,-0.008522109128534794,0.17204007506370544,0.19001640379428864
1771525738370396700,7.324396728515625,-0.05219791829586029,0.1688442826271057,0.20493009686470032
1771525738380399400,7.3343994140625,-0.08096003532409668,0.15606112778186798,0.2486059069633484
1771525738390401800,7.34440185546875,-0.09267793595790863,0.1368863731622696,0.30719539523124695
1771525738400404500,7.354404541015625,-0.0798947736620903,0.10705899447202682,0.38709017634391785
1771525738410407200,7.3644072265625,-0.05539371073246002,0.027164222672581673,0.47550705075263977
1771525738420409900,7.374409912109375,-0.029827382415533066,-0.08894951641559601,0.5287702679634094
1771525738430412500,7.38441259765625,-0.022370535880327225,-0.20080219209194183,0.5266396999359131
1771525738440415200,7.394415283203125,-0.041545283049345016,-0.28495803475379944,0.4659196734428406
1771525738450418000,7.40441796875,-0.07456845790147781,-0.31691592931747437,0.38815543055534363
1771525738460420600,7.414420654296875,-0.11078742146492004,-0.31372013688087463,0.3135869801044464
1771525738470423000,7.424423095703125,-0.13422322273254395,-0.2817622423171997,0.2518016993999481
1771525738480425700,7.43442578125,-0.12783163785934448,-0.2348906397819519,0.24434484541416168
1771525738490428400,7.444428466796875,-0.0894821435213089,-0.19654114544391632,0.29334697127342224
1771525738500431000,7.45443115234375,-0.04793686419725418,-0.18588849902153015,0.33489224314689636
1771525738510433800,7.464433837890625,-0.045806337147951126,-0.21891167759895325,0.2816290855407715
1771525738520436500,7.4744365234375,-0.11078742146492004,-0.23595589399337769,0.10159952193498611
1771525738530439200,7.484439208984375,-0.2215748429298401,-0.2167811542749405,-0.14767217636108398
1771525738540441900,7.49444189453125,-0.32170963287353516,-0.16777902841567993,-0.390552282333374
1771525738550444500,7.504444580078125,-0.3611243665218353,-0.14008216559886932,-0.5524723529815674
1771525738560447000,7.514447021484375,-0.31318750977516174,-0.13475584983825684,-0.5801692008972168
1771525738570449700,7.52444970703125,-0.20346535742282867,-0.1645832359790802,-0.5024049878120422
1771525738580452400,7.534452392578125,-0.06391581892967224,-0.24128220975399017,-0.3628554344177246
1771525738590455000,7.544455078125,0.02876211889088154,-0.3094590902328491,-0.23715431988239288
1771525738600457700,7.554457763671875,0.038349490612745285,-0.26578328013420105,-0.1615206003189087
1771525738610460400,7.56446044921875,-0.02876211889088154,-0.2018674612045288,-0.14021532237529755
1771525738620463000,7.574463134765625,-0.11717899888753891,-0.13475584983825684,-0.19560903310775757
1771525738630465800,7.5844658203125,-0.20453062653541565,-0.054861076176166534,-0.28509119153022766
1771525738640468200,7.59446826171875,-0.2780338227748871,0.011185267940163612,-0.40440070629119873
1771525738650471000,7.604470947265625,-0.2908169627189636,0.042077913880348206,-0.5290365815162659
1771525738660473600,7.6144736328125,-0.23435799777507782,0.054861076176166534,-0.5982787013053894
1771525738670476300,7.624476318359375,-0.13741901516914368,0.08681898564100266,-0.5812344551086426
1771525738680479000,7.63447900390625,-0.023435799404978752,0.11451584100723267,-0.5087965726852417
1771525738690481700,7.644481689453125,0.08628635853528976,0.09960214793682098,-0.44061967730522156
1771525738700484400,7.654484375,0.17150744795799255,0.06338318437337875,-0.38096490502357483
1771525738710487000,7.664487060546875,0.21731378138065338,0.018642114475369453,-0.3117227852344513
1771525738720489500,7.674489501953125,0.22264009714126587,-0.034621067345142365,-0.2318280041217804
1771525738730492200,7.6844921875,0.20559588074684143,-0.09640636295080185,-0.15832480788230896
1771525738740494800,7.694494873046875,0.17576849460601807,-0.15712638199329376,-0.09227846562862396
1771525738750497500,7.70449755859375,0.14381058514118195,-0.18056218326091766,-0.011318426579236984
1771525738760500200,7.714500244140625,0.10759162902832031,-0.1699095517396927,0.07922898232936859
1771525738770503000,7.7245029296875,0.08096003532409668,-0.1411474347114563,0.15699322521686554
1771525738780505600,7.734505615234375,0.07137266546487808,-0.1081242561340332,0.22836589813232422
1771525738790508300,7.74450830078125,0.06817687302827835,-0.07297056168317795,0.29334697127342224
1771525738810513400,7.764513427734375,0.06817687302827835,0.005858949851244688,0.33489224314689636
1771525738820516000,7.77451611328125,0.07776424288749695,0.027164222672581673,0.30186909437179565
1771525738830518800,7.784518798828125,0.08735162019729614,0.0282294861972332,0.2475406378507614
1771525738840521500,7.794521484375,0.08522108942270279,0.030360013246536255,0.17829850316047668
1771525738850524200,7.804524169921875,0.07350318878889084,0.04527370631694794,0.13142690062522888
1771525738860526800,7.81452685546875,0.06072002649307251,0.061252661049366,0.10799109935760498
1771525738870529500,7.824529541015625,0.04793686419725418,0.06444845348596573,0.10373004525899887
1771525738880532000,7.834531982421875,0.03621896356344223,0.0751010850071907,0.11864373832941055
1771525738890534700,7.84453466796875,0.026631591841578484,0.08681898564100266,0.1591237634420395
1771525738900537300,7.854537353515625,0.02024000883102417,0.08149266988039017,0.2102564126253128
1771525738910540000,7.8645400390625,0.022370535880327225,0.09214530140161514,0.2709764242172241
1771525738920542700,7.874542724609375,0.014913691207766533,0.11877689510583878,0.31678277254104614
1771525738930545400,7.88454541015625,0.012783164158463478,0.14221268892288208,0.31571751832962036
1771525738940548000,7.894548095703125,0.021305272355675697,0.14860427379608154,0.2613890767097473
1771525738950550800,7.90455078125,0.02876211889088154,0.1411474347114563,0.16125428676605225
1771525738960553200,7.91455322265625,0.04793686419725418,0.11984215676784515,0.06218476593494415
1771525738970556000,7.924555908203125,0.07563371956348419,0.04953476041555405,-0.014514217153191566
1771525738980558600,7.93455859375,0.10759162902832031,-0.02396843209862709,-0.054994236677885056
1771525738990561300,7.944561279296875,0.12357058376073837,-0.08042740821838379,-0.05819002538919449
1771525739000564000,7.95456396484375,0.13315795361995697,-0.07723161578178406,-0.039015281945466995
1771525739010566700,7.964566650390625,0.1267663687467575,-0.03142527863383293,-0.047537390142679214
1771525739020569300,7.9745693359375,0.046871598809957504,0.0516652874648571,-0.1657816469669342
1771525739030572000,7.984572021484375,-0.01597895473241806,0.11984215676784515,-0.336223840713501
1771525739040574700,7.99457470703125,-0.07137266546487808,0.14753901958465576,-0.49814391136169434
1771525739050577400,8.004577392578126,-0.0798947736620903,0.11345057934522629,-0.5908218622207642
1771525739060580000,8.014580078125,-0.026631591841578484,0.02396843209862709,-0.5460807681083679
1771525739080585500,8.03458544921875,0.15339796245098114,-0.22423799335956573,-0.18176060914993286
1771525739090588200,8.044588134765625,0.17470324039459229,-0.25619590282440186,-0.003861580742523074
1771525739100590800,8.0545908203125,0.12570111453533173,-0.22210747003555298,0.08668582886457443
1771525739110593500,8.064593505859374,0.014913691207766533,-0.15393058955669403,0.07070687413215637
1771525739120596200,8.07459619140625,-0.13209268450737,-0.0516652874648571,-0.07203845679759979
1771525739130599000,8.084598876953125,-0.2577938139438629,0.0516652874648571,-0.27656906843185425
1771525739140601600,8.0946015625,-0.3142527639865875,0.14434322714805603,-0.4331628382205963
1771525739150604500,8.1046044921875,-0.29401275515556335,0.19121482968330383,-0.5013396739959717
1771525739160607200,8.114607177734374,-0.22690115869045258,0.17949692904949188,-0.5045354962348938
1771525739170610000,8.12460986328125,-0.11398320645093918,0.12410321086645126,-0.4438154697418213
1771525739180612600,8.134612548828125,-0.011717899702489376,0.08788424730300903,-0.33196279406547546
1771525739190615300,8.144615234375,0.06285055726766586,0.04740423336625099,-0.22437115013599396
1771525739200618000,8.154617919921876,0.10439583659172058,0.006924213841557503,-0.17217323184013367
1771525739210620700,8.16462060546875,0.10652636736631393,-0.03568633273243904,-0.14873743057250977
1771525739220623400,8.174623291015624,0.06817687302827835,-0.061252661049366,-0.14767217636108398
1771525739230626000,8.1846259765625,0.014913691207766533,-0.059122130274772644,-0.13488900661468506
1771525739240628700,8.194628662109375,-0.03195790946483612,-0.062317922711372375,-0.1093226820230484
1771525739250631400,8.20463134765625,-0.054328445345163345,-0.06018739566206932,-0.07416898012161255
1771525739260634000,8.214634033203126,-0.042610544711351395,-0.058056868612766266,-0.012383690103888512
1771525739270636800,8.22463671875,-0.005326318088918924,-0.04846949502825737,0.05792371183633804
1771525739280639700,8.2346396484375,0.054328445345163345,-0.046338967978954315,0.1069258376955986
1771525739290642400,8.244642333984375,0.1129179447889328,-0.04420844092965126,0.13142690062522888
1771525739300645000,8.25464501953125,0.15659375488758087,-0.030360013246536255,0.15060164034366608
1771525739310647800,8.264647705078126,0.1736379712820053,-0.01438105944544077,0.16445007920265198
1771525739320650500,8.274650390625,0.17044217884540558,0.006924213841557503,0.16551533341407776
1771525739330653200,8.284653076171875,0.15872427821159363,0.0282294861972332,0.16977639496326447
1771525739340655900,8.29465576171875,0.13741901516914368,0.04420844092965126,0.1772332340478897
1771525739350658600,8.304658447265625,0.11398320645093918,0.06018739566206932,0.17190691828727722
1771525739360661200,8.3146611328125,0.09693899005651474,0.08681898564100266,0.18149429559707642
1771525739370664000,8.324663818359374,0.08096003532409668,0.10918952524662018,0.21771325170993805
1771525739380666600,8.33466650390625,0.054328445345163345,0.12516847252845764,0.2613890767097473
1771525739390669300,8.34466943359375,0.021305272355675697,0.12090742588043213,0.294412225484848
1771525739400672000,8.354672119140625,-0.0021305272821336985,0.1081242561340332,0.3380880355834961
1771525739420677400,8.374677490234374,-0.0021305272821336985,-0.06657897680997849,0.40200385451316833
1771525739430680000,8.38468017578125,0.006391582079231739,-0.18695376813411713,0.3849596381187439
1771525739440682500,8.3946826171875,0.008522109128534794,-0.28495803475379944,0.3370227813720703
1771525739450685200,8.404685302734375,-0.0010652636410668492,-0.3392864763736725,0.28375959396362305
1771525739460688000,8.41468798828125,-0.017044218257069588,-0.3488738536834717,0.24008379876613617
1771525739470690600,8.424690673828126,-0.03621896356344223,-0.29454538226127625,0.23795326054096222
1771525739480693200,8.434693359375,-0.05326318368315697,-0.20080219209194183,0.3146522343158722
1771525739490696000,8.444696044921875,-0.046871598809957504,-0.10279794037342072,0.4414186179637909
1771525739500698600,8.45469873046875,-0.010652636177837849,-0.04953476041555405,0.5298355221748352
1771525739510701300,8.464701416015625,-0.011717899702489376,-0.04953476041555405,0.4968123435974121
1771525739520703700,8.474703857421876,-0.045806337147951126,-0.08042740821838379,0.32637014985084534
1771525739530706400,8.48470654296875,-0.1363537460565567,-0.06870950758457184,0.0366184376180172
1771525739550711800,8.5047119140625,-0.24288010597229004,-0.027164222672581673,-0.46831652522087097
1771525739560714500,8.514714599609375,-0.2066611498594284,-0.06870950758457184,-0.5652555227279663
1771525739570717200,8.52471728515625,-0.10226531326770782,-0.17097482085227966,-0.5173186659812927
1771525739580719900,8.534719970703126,0.04048001766204834,-0.29880645871162415,-0.3628554344177246
1771525739590722600,8.54472265625,0.15126743912696838,-0.3808317482471466,-0.1657816469669342
1771525739600725000,8.55472509765625,0.18002955615520477,-0.38402754068374634,0.005725792143493891
1771525739610727700,8.564727783203125,0.10759162902832031,-0.28389275074005127,0.11118689179420471
1771525739620730400,8.57473046875,-0.011717899702489376,-0.16671375930309296,0.12397005409002304
1771525739630733000,8.584733154296876,-0.15446323156356812,-0.03568633273243904,0.04407528415322304
1771525739640735700,8.59473583984375,-0.29401275515556335,0.09640636295080185,-0.07843003422021866
1771525739650738400,8.604738525390625,-0.3866907060146332,0.20932430028915405,-0.21158799529075623
1771525739660741000,8.6147412109375,-0.3856254518032074,0.25086960196495056,-0.3159838318824768
1771525739670743800,8.624743896484375,-0.2950780391693115,0.22956430912017822,-0.37137752771377563
1771525739680746200,8.634746337890626,-0.1502021700143814,0.18162745237350464,-0.38522595167160034
1771525739690749000,8.6447490234375,0.014913691207766533,0.10173267871141434,-0.3575291037559509
1771525739700751600,8.654751708984374,0.16298533976078033,-0.027164222672581673,-0.32344067096710205
1771525739710754300,8.66475439453125,0.2588590681552887,-0.15819165110588074,-0.30533120036125183
1771525739720757000,8.674757080078125,0.3163833022117615,-0.2636527419090271,-0.27124276757240295
1771525739730759700,8.684759765625,0.3142527639865875,-0.2998717129230499,-0.2265016883611679
1771525739740762400,8.694762451171876,0.26951169967651367,-0.29348012804985046,-0.19134798645973206
1771525739750765000,8.70476513671875,0.20453062653541565,-0.23276010155677795,-0.1423458606004715
1771525739760767500,8.714767578125,0.13422322273254395,-0.15606112778186798,-0.0954742506146431
1771525739770770200,8.724770263671875,0.08309056609869003,-0.0846884623169899,-0.008122635073959827
1771525739780772900,8.73477294921875,0.05539371073246002,-0.025033695623278618,0.09733846783638
1771525739790775600,8.744775634765626,0.04793686419725418,0.0516652874648571,0.21238693594932556
1771525739800778200,8.7547783203125,0.05219791829586029,0.11345057934522629,0.31678277254104614
1771525739810781000,8.764781005859374,0.06285055726766586,0.15606112778186798,0.3700459599494934
1771525739820783600,8.77478369140625,0.08628635853528976,0.1592569202184677,0.38282912969589233
1771525739830786300,8.784786376953125,0.0990695208311081,0.15180006623268127,0.36365437507629395
1771525739840788700,8.794788818359375,0.09480846673250198,0.16564849019050598,0.331696480512619
1771525739850791400,8.80479150390625,0.06924213469028473,0.21358536183834076,0.275237500667572
1771525739860794000,8.814794189453124,0.04048001766204834,0.26684853434562683,0.1910816729068756
1771525739870796800,8.824796875,0.025566328316926956,0.297741174697876,0.1069258376955986
1771525739880799500,8.834799560546875,0.03728422895073891,0.28495803475379944,0.049401599913835526
1771525739890802200,8.84480224609375,0.08415582776069641,0.21997694671154022,0.012117373757064342
1771525739900804900,8.854804931640626,0.14807164669036865,0.11558110266923904,0.012117373757064342
1771525739910807600,8.8648076171875,0.22264009714126587,-0.0015978955198079348,0.05259739235043526
1771525739920810000,8.87481005859375,0.2780338227748871,-0.10279794037342072,0.11118689179420471
1771525739930812700,8.884812744140625,0.2812296152114868,-0.1411474347114563,0.14740586280822754
1771525739940815400,8.8948154296875,0.23648852109909058,-0.11132004857063293,0.16231954097747803
1771525739950818000,8.904818115234375,0.17789903283119202,-0.058056868612766266,0.17829850316047668
1771525739960820700,8.91482080078125,0.09054741263389587,-0.00798947736620903,0.1591237634420395
1771525739970823400,8.924823486328124,0.03195790946483612,-0.004793686326593161,0.11970899999141693
1771525739980826000,8.934826171875,0.011717899702489376,-0.038882121443748474,0.10053425282239914
1771525739990828800,8.944828857421875,0.0074568456038832664,-0.07297056168317795,0.09840372949838638
1771525740000831200,8.954831298828125,0.004261054564267397,-0.07297056168317795,0.15273217856884003
1771525740020836600,8.974836669921874,-0.038349490612745285,0.05273054912686348,0.17403744161128998
1771525740030839300,8.98483935546875,-0.1129179447889328,0.17630113661289215,0.0270310640335083
1771525740040842000,8.994842041015625,-0.188551664352417,0.3020022511482239,-0.17430377006530762
1771525740050844700,9.0048447265625,-0.2162485122680664,0.34567806124687195,-0.3958786129951477
1771525740060847400,9.014847412109376,-0.16192007064819336,0.2924148738384247,-0.5535376071929932
1771525740070850000,9.02485009765625,-0.04474107176065445,0.1880190372467041,-0.5737776160240173
1771525740080852500,9.0348525390625,0.08522108942270279,0.054861076176166534,-0.48429548740386963
1771525740090855200,9.044855224609375,0.18002955615520477,-0.05592634156346321,-0.37137752771377563
1771525740100857900,9.05485791015625,0.21092219650745392,-0.11877689510583878,-0.2701774835586548
1771525740110860500,9.064860595703125,0.15233269333839417,-0.09747162461280823,-0.1892174482345581
1771525740120863200,9.07486328125,0.03728422895073891,-0.03142527863383293,-0.14873743057250977
1771525740130866000,9.084865966796874,-0.09374319761991501,0.0516652874648571,-0.1700427085161209
1771525740140868600,9.09486865234375,-0.20133483409881592,0.14327795803546906,-0.23289325833320618
1771525740150871300,9.104871337890625,-0.2577938139438629,0.24234747886657715,-0.30426591634750366
1771525740160873700,9.114873779296875,-0.26098960638046265,0.32330751419067383,-0.3532680571079254
1771525740170876400,9.12487646484375,-0.2119874656200409,0.354200154542923,-0.3585943877696991
1771525740180879000,9.134879150390624,-0.11717899888753891,0.32756856083869934,-0.32344067096710205
1771525740190881800,9.1448818359375,0.005326318088918924,0.23382537066936493,-0.25206801295280457
1771525740200884500,9.154884521484375,0.1310274302959442,0.07829687744379044,-0.17323850095272064
1771525740210887200,9.16488720703125,0.2258358895778656,-0.11345057934522629,-0.11677952855825424
1771525740220889900,9.174889892578125,0.2727074921131134,-0.28069695830345154,-0.08801741153001785
1771525740230892500,9.184892578125,0.27590328454971313,-0.39787596464157104,-0.06777740269899368
1771525740240895000,9.19489501953125,0.2492716908454895,-0.4479433596134186,-0.0294279083609581
1771525740250897700,9.204897705078125,0.2119874656200409,-0.4383559823036194,0.040879491716623306
1771525740260900400,9.214900390625,0.18109482526779175,-0.41598546504974365,0.10373004525899887
1771525740270903000,9.224903076171875,0.1597895473241806,-0.34567806124687195,0.1729721873998642
1771525740280905700,9.23490576171875,0.10865689069032669,-0.24341274797916412,0.2241048365831375
1771525740290908400,9.244908447265624,0.08841688185930252,-0.1837579756975174,0.2635195851325989
1771525740300911000,9.2549111328125,0.07350318878889084,-0.14008216559886932,0.2763027548789978
1771525740310913800,9.264913818359375,0.061785291880369186,-0.07936213910579681,0.2816290855407715
1771525740320916200,9.274916259765625,0.046871598809957504,0.005858949851244688,0.29760801792144775
1771525740330919000,9.2849189453125,0.025566328316926956,0.10066741704940796,0.3039996027946472
1771525740340921600,9.294921630859376,0.011717899702489376,0.1784316599369049,0.29334697127342224
1771525740350924300,9.30492431640625,0.0074568456038832664,0.23595589399337769,0.2848248779773712
1771525740360927000,9.314927001953125,0.006391582079231739,0.26684853434562683,0.2624543309211731
1771525740370929700,9.3249296875,0.004261054564267397,0.276435911655426,0.2347574681043625
1771525740380932400,9.334932373046875,0.01597895473241806,0.26684853434562683,0.22943115234375
1771525740390935000,9.34493505859375,0.038349490612745285,0.2498043179512024,0.23795326054096222
1771525740400937500,9.3549375,0.061785291880369186,0.22423799335956573,0.24008379876613617
1771525740410940200,9.364940185546875,0.09054741263389587,0.16351796686649323,0.22197431325912476
1771525740420942800,9.37494287109375,0.11504847556352615,0.0846884623169899,0.1825595498085022
1771525740430945500,9.384945556640625,0.12463584542274475,-0.020772641524672508,0.12823110818862915
1771525740440948200,9.3949482421875,0.11717899888753891,-0.12090742588043213,0.09414267539978027
1771525740450951000,9.404950927734374,0.09374319761991501,-0.21784640848636627,0.08775109052658081
1771525740460953600,9.41495361328125,0.06285055726766586,-0.297741174697876,0.08029424399137497
1771525740470956300,9.424956298828125,0.038349490612745285,-0.33715593814849854,0.09840372949838638
1771525740480958700,9.434958740234375,0.026631591841578484,-0.31691592931747437,0.13781848549842834
1771525740490961400,9.44496142578125,0.018109481781721115,-0.25193485617637634,0.19321219623088837
1771525740500964000,9.454964111328126,0.004261054564267397,-0.14753901958465576,0.2336922138929367
1771525740510966800,9.464966796875,-0.03941475600004196,-0.018642114475369453,0.22090904414653778
1771525740520969500,9.474969482421875,-0.12357058376073837,0.12836426496505737,0.14847111701965332
1771525740530972200,9.48497216796875,-0.2066611498594284,0.24341274797916412,0.030226856470108032
1771525740540974800,9.494974853515625,-0.2918822467327118,0.30306750535964966,-0.12956269085407257
1771525740550977500,9.5049775390625,-0.31212225556373596,0.28815382719039917,-0.24354590475559235
1771525740560980000,9.51497998046875,-0.2737727463245392,0.21038956940174103,-0.21158799529075623
1771525740570982700,9.524982666015624,-0.18109482526779175,0.0708400309085846,-0.0624510794878006
1771525740580985300,9.5349853515625,-0.066046342253685,-0.12197268754243851,0.11864373832941055
1771525740590988000,9.544988037109375,-0.0010652636410668492,-0.2860232889652252,0.23582273721694946
1771525740600990700,9.55499072265625,-0.029827382415533066,-0.332894891500473,0.26458486914634705
1771525740610993400,9.564993408203126,-0.1267663687467575,-0.3051980435848236,0.22303956747055054
1771525740620996000,9.57499609375,-0.25140222907066345,-0.20506325364112854,0.08881635963916779
1771525740630998800,9.584998779296875,-0.3653854429721832,-0.04527370631694794,-0.10399636626243591
1771525740641001500,9.59500146484375,-0.43569281697273254,0.12516847252845764,-0.314918577671051
1771525740651004000,9.60500390625,-0.43569281697273254,0.2348906397819519,-0.5162534117698669
1771525740661006600,9.615006591796876,-0.3472759425640106,0.23595589399337769,-0.6717818975448608
1771525740671009300,9.62500927734375,-0.20026956498622894,0.1699095517396927,-0.7612640261650085
1771525740681012000,9.635011962890625,-0.0330231711268425,0.06338318437337875,-0.7633945345878601
1771525740691014700,9.6450146484375,0.10546109825372696,-0.0655137151479721,-0.7016092538833618
1771525740701017300,9.655017333984375,0.18748639523983002,-0.17204007506370544,-0.6025397181510925
1771525740711020000,9.66502001953125,0.19920429587364197,-0.24341274797916412,-0.47470811009407043
1771525740721022700,9.675022705078124,0.1502021700143814,-0.26684853434562683,-0.3585943877696991
1771525740731025400,9.685025390625,0.06817687302827835,-0.2402169555425644,-0.2414153665304184
1771525740741028000,9.695028076171875,-0.02876211889088154,-0.1880190372467041,-0.14873743057250977
1771525740751030800,9.70503076171875,-0.1033305749297142,-0.13262532651424408,-0.1093226820230484
1771525740761033500,9.715033447265625,-0.14807164669036865,-0.10279794037342072,-0.10825742036104202
1771525740771036400,9.725036376953126,-0.1406148076057434,-0.09214530140161514,-0.11784479022026062
1771525740781039000,9.7350390625,-0.10120004415512085,-0.10173267871141434,-0.09227846562862396
1771525740791041800,9.745041748046875,-0.038349490612745285,-0.12090742588043213,-0.03262370079755783
1771525740801044500,9.75504443359375,0.041545283049345016,-0.14860427379608154,0.06644582003355026
1771525740811047200,9.765047119140625,0.10546109825372696,-0.16245271265506744,0.1825595498085022
1771525740821049900,9.7750498046875,0.1416800618171692,-0.17097482085227966,0.27949854731559753
1771525740831052500,9.785052490234374,0.1502021700143814,-0.1933453530073166,0.342349112033844
1771525740841055200,9.79505517578125,0.1406148076057434,-0.1880190372467041,0.38815543055534363
1771525740851058000,9.805057861328125,0.11930952966213226,-0.16138744354248047,0.42863544821739197
1771525740861060600,9.815060546875,0.09374319761991501,-0.13369058072566986,0.45633232593536377
1771525740871063300,9.825063232421876,0.08735162019729614,-0.1272990107536316,0.4914860129356384
1771525740881066000,9.83506591796875,0.0894821435213089,-0.1315600574016571,0.5010733604431152
1771525740891068700,9.845068603515625,0.0703074038028717,-0.08255793154239655,0.49894285202026367
1771525740901071600,9.855071533203125,0.046871598809957504,0.009054740890860558,0.5202481150627136
1771525740911074300,9.86507421875,0.008522109128534794,0.14221268892288208,0.5415533781051636
1771525740921077000,9.875076904296876,-0.0330231711268425,0.2956106662750244,0.5554018020629883
1771525740931079700,9.88507958984375,-0.07669898122549057,0.4149201810359955,0.530900776386261
1771525740941082400,9.895082275390624,-0.1129179447889328,0.502271831035614,0.45846283435821533
1771525740951085000,9.9050849609375,-0.13209268450737,0.5480781197547913,0.36258912086486816
1771525740971090400,9.92509033203125,-0.08415582776069641,0.456465482711792,0.11757847666740417
1771525740981093000,9.935093017578126,-0.030892645940184593,0.3531349003314972,0.03448791056871414
1771525740991095800,9.945095703125,0.02769685536623001,0.2444780021905899,-0.028362644836306572
1771525741001098500,9.955098388671875,0.07350318878889084,0.1507348120212555,-0.11251847445964813
1771525741011101200,9.96510107421875,0.07563371956348419,0.14008216559886932,-0.2510027587413788
1771525741021103600,9.975103515625,0.030892645940184593,0.19867166876792908,-0.43103229999542236
1771525741031106300,9.985106201171876,-0.017044218257069588,0.2625874876976013,-0.6195839643478394
1771525741041109000,9.99510888671875,-0.022370535880327225,0.3158506751060486,-0.7175882458686829
1771525741051111700,10.005111572265625,0.023435799404978752,0.32224225997924805,-0.6430197358131409
1771525741061114400,10.0151142578125,0.09480846673250198,0.297741174697876,-0.4235754609107971
1771525741071117000,10.025116943359375,0.1502021700143814,0.2721748650074005,-0.1327584832906723
1771525741081119700,10.03511962890625,0.14913691580295563,0.24767379462718964,0.1356879621744156
1771525741091122400,10.045122314453126,0.1033305749297142,0.18695376813411713,0.2912164330482483
1771525741101124900,10.055124755859374,0.012783164158463478,0.09321057051420212,0.29334697127342224
1771525741111127600,10.06512744140625,-0.10972215235233307,0.027164222672581673,0.1676458716392517
1771525741121130200,10.075130126953125,-0.21305273473262787,0.02396843209862709,0.001464737462811172
1771525741131133000,10.0851328125,-0.26951169967651367,0.0516652874648571,-0.14341111481189728
1771525741141135600,10.095135498046876,-0.24714116752147675,0.0985368862748146,-0.23076273500919342
1771525741151138300,10.10513818359375,-0.18002955615520477,0.16351796686649323,-0.24887222051620483
1771525741161141000,10.11514111328125,-0.11078742146492004,0.22743378579616547,-0.22437115013599396
1771525741171143700,10.125143798828125,-0.042610544711351395,0.28389275074005127,-0.203065887093544
1771525741181146000,10.13514599609375,0.022370535880327225,0.3009369671344757,-0.17430377006530762
1771525741191148800,10.145148681640626,0.07563371956348419,0.287088543176651,-0.13488900661468506
1771525741201151500,10.1551513671875,0.10652636736631393,0.24554327130317688,-0.10825742036104202
1771525741211154200,10.165154296875,0.122505322098732,0.16564849019050598,-0.11251847445964813
1771525741221156900,10.175156982421875,0.12783163785934448,0.06870950758457184,-0.14021532237529755
1771525741231159600,10.18515966796875,0.12357058376073837,-0.03675159439444542,-0.15512901544570923
1771525741241162200,10.195162353515625,0.11504847556352615,-0.12942953407764435,-0.13169321417808533
1771525741251165000,10.2051650390625,0.09800425171852112,-0.21252009272575378,-0.08269108831882477
1771525741261167600,10.215167724609374,0.08309056609869003,-0.27537065744400024,-0.030493171885609627
1771525741271170000,10.225170166015625,0.07669898122549057,-0.30306750535964966,0.029161592945456505
1771525741281172700,10.2351728515625,0.0703074038028717,-0.28921908140182495,0.09946899116039276
1771525741291175400,10.245175537109375,0.061785291880369186,-0.24234747886657715,0.15273217856884003
1771525741301178000,10.25517822265625,0.05539371073246002,-0.15819165110588074,0.16018901765346527
1771525741311180800,10.265180908203124,0.05326318368315697,-0.04846949502825737,0.14847111701965332
1771525741321183500,10.27518359375,0.058589499443769455,0.04314317926764488,0.1346226930618286
1771525741331186200,10.285186279296875,0.06817687302827835,0.0942758321762085,0.11118689179420471
1771525741341188900,10.29518896484375,0.07776424288749695,0.1081242561340332,0.06751108169555664
1771525741351191300,10.30519140625,0.09054741263389587,0.09001477807760239,0.017443692311644554
1771525741361194000,10.315194091796876,0.0990695208311081,0.06338318437337875,-0.011318426579236984
1771525741371196700,10.32519677734375,0.1129179447889328,0.021837905049324036,0.011052110232412815
1771525741381199400,10.335199462890625,0.10972215235233307,-0.013315795920789242,0.10159952193498611
1771525741391202000,10.3452021484375,0.08522108942270279,-0.026098959147930145,0.20919114351272583
1771525741401204700,10.355204833984375,0.05219791829586029,-0.030360013246536255,0.29760801792144775
1771525741411207400,10.36520751953125,0.012783164158463478,-0.058056868612766266,0.3242396116256714
1771525741421210000,10.375210205078124,-0.025566328316926956,-0.07616634666919708,0.296542763710022
1771525741431212500,10.385212646484375,-0.05539371073246002,-0.09747162461280823,0.2518016993999481
1771525741441215200,10.39521533203125,-0.066046342253685,-0.11558110266923904,0.1825595498085022
1771525741451218000,10.405218017578125,-0.05539371073246002,-0.1358211189508438,0.12929637730121613
1771525741461220600,10.415220703125,-0.03195790946483612,-0.13049480319023132,0.10479531437158585
1771525741471223300,10.425223388671874,0,-0.08042740821838379,0.13781848549842834
1771525741481226000,10.43522607421875,0.042610544711351395,-0.02396843209862709,0.2241048365831375
1771525741491228700,10.445228759765625,0.07563371956348419,0.01651158556342125,0.28802067041397095
1771525741501231400,10.4552314453125,0.0798947736620903,0.04953476041555405,0.24647536873817444
1771525741511233800,10.46523388671875,0.01597895473241806,0.10066741704940796,0.10053425282239914
1771525741521236500,10.475236572265626,-0.10120004415512085,0.18908429145812988,-0.15832480788230896
1771525741531239200,10.4852392578125,-0.20985694229602814,0.25086960196495056,-0.4534028470516205
1771525741541241900,10.495241943359375,-0.22903168201446533,0.22423799335956573,-0.6419544816017151
1771525741551244500,10.50524462890625,-0.14807164669036865,0.11238531768321991,-0.6387587189674377
1771525741561247200,10.515247314453125,0.0021305272821336985,-0.058056868612766266,-0.48323023319244385
1771525741571250000,10.52525,0.16405059397220612,-0.24234747886657715,-0.2914827764034271
1771525741581252600,10.535252685546874,0.22690115869045258,-0.3424822688102722,-0.1615206003189087
1771525741591255000,10.545255126953125,0.1459411233663559,-0.3105243444442749,-0.11038794368505478
1771525741601257700,10.5552578125,-0.03728422895073891,-0.2018674612045288,-0.12956269085407257
1771525741611260400,10.565260498046875,-0.2545980215072632,-0.037816859781742096,-0.21904483437538147
1771525741621263000,10.57526318359375,-0.4388886094093323,0.14966954290866852,-0.34261542558670044
1771525741641268500,10.5952685546875,-0.4942823350429535,0.335025429725647,-0.5045354962348938
1771525741651271200,10.605271240234375,-0.4005391299724579,0.3861580789089203,-0.5002744197845459
1771525741661273900,10.61527392578125,-0.2822948694229126,0.3989412188529968,-0.4427502155303955
1771525741671276300,10.6252763671875,-0.16298533976078033,0.3478085696697235,-0.3724428117275238
1771525741681279000,10.635279052734376,-0.06817687302827835,0.25726115703582764,-0.30959224700927734
1771525741691281700,10.64528173828125,0.008522109128534794,0.14221268892288208,-0.2414153665304184
1771525741701284400,10.655284423828125,0.02769685536623001,0.01225053146481514,-0.1945437788963318
1771525741711287000,10.665287109375,0.023435799404978752,-0.12516847252845764,-0.1753690242767334
1771525741731292400,10.68529248046875,-0.03621896356344223,-0.26578328013420105,-0.11358373612165451
1771525741741295000,10.695295166015624,-0.058589499443769455,-0.29028433561325073,-0.043276336044073105
1771525741751297500,10.705297607421874,-0.066046342253685,-0.2860232889652252,0.04407528415322304
1771525741761300200,10.71530029296875,-0.066046342253685,-0.26471802592277527,0.09520793706178665
1771525741771303000,10.725302978515625,-0.042610544711351395,-0.2625874876976013,0.09094688296318054
1771525741781305600,10.7353056640625,0.004261054564267397,-0.287088543176651,0.06431528925895691
1771525741791308300,10.745308349609376,0.03941475600004196,-0.29028433561325073,0.05685844644904137
1771525741801311000,10.75531103515625,0.06391581892967224,-0.28815382719039917,0.07070687413215637
1771525741811313700,10.765313720703125,0.066046342253685,-0.2593916952610016,0.09201214462518692
1771525741821316400,10.77531640625,0.06072002649307251,-0.24554327130317688,0.10053425282239914
1771525741831318800,10.78531884765625,0.05752423778176308,-0.22423799335956573,0.10053425282239914
1771525741841321500,10.795321533203126,0.06498108059167862,-0.19547587633132935,0.11544794589281082
1771525741851324200,10.80532421875,0.08841688185930252,-0.19228008389472961,0.17829850316047668
1771525741861326800,10.815326904296874,0.1129179447889328,-0.21784640848636627,0.25499749183654785
1771525741871329500,10.82532958984375,0.12996216118335724,-0.2540653645992279,0.3178480267524719
1771525741881332200,10.835332275390625,0.13209268450737,-0.27537065744400024,0.3561975359916687
1771525741891335000,10.8453349609375,0.12463584542274475,-0.276435911655426,0.3849596381187439
1771525741901337600,10.855337646484376,0.09800425171852112,-0.2551306486129761,0.3849596381187439
1771525741911340000,10.865340087890624,0.061785291880369186,-0.21358536183834076,0.3572627902030945
1771525741921342700,10.8753427734375,0.03941475600004196,-0.1454084813594818,0.33489224314689636
1771525741931345400,10.885345458984375,0.022370535880327225,-0.09960214793682098,0.3199785649776459
1771525741941348000,10.89534814453125,0.04793686419725418,-0.10066741704940796,0.28802067041397095
1771525741951350800,10.905350830078126,0.08522108942270279,-0.10279794037342072,0.23049642145633698
1771525741961353500,10.915353515625,0.12570111453533173,-0.1507348120212555,0.18469008803367615
1771525741971356200,10.925356201171875,0.1502021700143814,-0.18588849902153015,0.19427745044231415
1771525741981358800,10.93535888671875,0.15446323156356812,-0.2018674612045288,0.24647536873817444
1771525741991361300,10.945361328125,0.1416800618171692,-0.18908429145812988,0.3082606792449951
1771525742001364000,10.955364013671876,0.11185268312692642,-0.1507348120212555,0.3135869801044464
1771525742021369300,10.975369384765624,-0.06711161136627197,-0.046338967978954315,-0.07310371845960617
1771525742031372000,10.9853720703125,-0.122505322098732,0.020772641524672508,-0.3490070104598999
1771525742041374700,10.995374755859375,-0.0798947736620903,0.04314317926764488,-0.5396891832351685
1771525742051377400,11.00537744140625,0.030892645940184593,0.07190529257059097,-0.5535376071929932
1771525742061380000,11.015380126953126,0.16831165552139282,0.08681898564100266,-0.4299670457839966
1771525742071382500,11.025382568359374,0.2599243223667145,0.05592634156346321,-0.23395852744579315
1771525742081385200,11.03538525390625,0.24074958264827728,0.01438105944544077,-0.0762995108962059
1771525742091388000,11.045387939453125,0.1310274302959442,-0.0282294861972332,-0.019840534776449203
1771525742101390600,11.055390625,-0.025566328316926956,-0.09108003973960876,-0.04647212475538254
1771525742111393300,11.065393310546876,-0.17683376371860504,-0.1272990107536316,-0.1380847990512848
1771525742121396000,11.07539599609375,-0.27590328454971313,-0.12623374164104462,-0.26698169112205505
1771525742131398700,11.085398681640624,-0.28442537784576416,-0.10173267871141434,-0.344745934009552
1771525742141401300,11.0954013671875,-0.21731378138065338,-0.0708400309085846,-0.3671164810657501
1771525742151403800,11.10540380859375,-0.12889690697193146,-0.03568633273243904,-0.35539859533309937
1771525742161406500,11.115406494140625,-0.045806337147951126,-0.01438105944544077,-0.3170490860939026
1771525742171409200,11.1254091796875,0.017044218257069588,-0.029294749721884727,-0.25206801295280457
1771525742181411800,11.135411865234374,0.05219791829586029,-0.07936213910579681,-0.19134798645973206
1771525742191414500,11.14541455078125,0.06817687302827835,-0.1454084813594818,-0.15512901544570923
1771525742201417200,11.155417236328125,0.0564589723944664,-0.21252009272575378,-0.13169321417808533
1771525742211420000,11.165419921875,0.030892645940184593,-0.28495803475379944,-0.11038794368505478
1771525742231425000,11.185425048828124,-0.030892645940184593,-0.3680485785007477,-0.10506162792444229
1771525742241427700,11.195427734375,-0.038349490612745285,-0.34141698479652405,-0.04540686309337616
1771525742251430400,11.205430419921875,-0.030892645940184593,-0.2924148738384247,0.020639482885599136
1771525742261433000,11.21543310546875,-0.011717899702489376,-0.2444780021905899,0.061119500547647476
1771525742271435800,11.225435791015625,0,-0.19547587633132935,0.09840372949838638
1771525742281438500,11.2354384765625,-0.006391582079231739,-0.1411474347114563,0.13355742394924164
1771525742291441200,11.245441162109374,0,-0.12516847252845764,0.17936377227306366
1771525742301443800,11.25544384765625,0.02024000883102417,-0.1464737504720688,0.2251701056957245
1771525742311446300,11.2654462890625,0.02450106292963028,-0.16351796686649323,0.23688800632953644
1771525742321449000,11.275448974609375,0.017044218257069588,-0.16777902841567993,0.21451745927333832
1771525742331451600,11.28545166015625,0.011717899702489376,-0.14327795803546906,0.20706062018871307
1771525742341454300,11.295454345703124,-0.0021305272821336985,-0.07616634666919708,0.23049642145633698
1771525742351457000,11.30545703125,-0.022370535880327225,-0.017576850950717926,0.23688800632953644
1771525742361459700,11.315459716796875,-0.022370535880327225,0.026098959147930145,0.2539322078227997
1771525742371462400,11.32546240234375,-0.026631591841578484,0.04740423336625099,0.28375959396362305
1771525742391467500,11.345467529296876,-0.061785291880369186,0.013315795920789242,0.33489224314689636
1771525742401470200,11.35547021484375,-0.07563371956348419,-0.04953476041555405,0.3178480267524719
1771525742411473000,11.365472900390625,-0.07882951200008392,-0.1081242561340332,0.2816290855407715
1771525742421475600,11.3754755859375,-0.07243792712688446,-0.14434322714805603,0.2486059069633484
1771525742431478300,11.385478271484375,-0.06285055726766586,-0.15712638199329376,0.24221432209014893
1771525742441481000,11.39548095703125,-0.05113265663385391,-0.15393058955669403,0.27310696244239807
1771525742451483600,11.405483642578124,-0.054328445345163345,-0.11984215676784515,0.3039996027946472
1771525742461486300,11.415486328125,-0.05539371073246002,-0.0846884623169899,0.3050648868083954
1771525742471489000,11.425489013671875,-0.02769685536623001,-0.06018739566206932,0.2901511788368225
1771525742481491500,11.435491455078125,0.018109481781721115,-0.05273054912686348,0.24541011452674866
1771525742491494100,11.445494140625,0.06285055726766586,-0.0516652874648571,0.1303616315126419
1771525742501496800,11.455496826171874,0.07243792712688446,-0.04101264849305153,-0.04221107065677643
1771525742511499500,11.46549951171875,0.04793686419725418,0.00798947736620903,-0.24461115896701813
1771525742521502200,11.475502197265625,0.004261054564267397,0.1038632020354271,-0.40333545207977295
1771525742531505000,11.4855048828125,-0.030892645940184593,0.18695376813411713,-0.457663893699646
1771525742541507600,11.495507568359375,-0.026631591841578484,0.23382537066936493,-0.39374807476997375
1771525742551510300,11.50551025390625,0.02024000883102417,0.22317273914813995,-0.23395852744579315
1771525742561512700,11.5155126953125,0.09800425171852112,0.1368863731622696,-0.06138581782579422
1771525742571515400,11.525515380859375,0.14487585425376892,0.029294749721884727,0.06431528925895691
1771525742581518000,11.53551806640625,0.11398320645093918,-0.020772641524672508,0.09414267539978027
1771525742591520800,11.545520751953125,0.02876211889088154,-0.010120004415512085,0.012117373757064342
1771525742601523500,11.5555234375,-0.08415582776069641,0.062317922711372375,-0.13169321417808533
1771525742611526100,11.565526123046874,-0.1693769246339798,0.18482324481010437,-0.2978743314743042
1771525742621528800,11.57552880859375,-0.19920429587364197,0.3051980435848236,-0.4427502155303955
1771525742631531500,11.585531494140625,-0.16298533976078033,0.3957454562187195,-0.5301018357276917
1771525742641534000,11.595533935546875,-0.09267793595790863,0.43516018986701965,-0.5567334294319153
1771525742651536600,11.60553662109375,-0.004261054564267397,0.4245075583457947,-0.5450155138969421
1771525742661539300,11.615539306640626,0.07243792712688446,0.3712443709373474,-0.4810996949672699
1771525742671542000,11.6255419921875,0.10652636736631393,0.30839383602142334,-0.3916175365447998
1771525742681544700,11.635544677734375,0.09693899005651474,0.2263685166835785,-0.30426591634750366
1771525742691547400,11.64554736328125,0.06285055726766586,0.1315600574016571,-0.24248063564300537
1771525742701549800,11.6555498046875,0.022370535880327225,0.0282294861972332,-0.20519641041755676
1771525742711552500,11.665552490234376,-0.006391582079231739,-0.07616634666919708,-0.17110797762870789
1771525742721555200,11.67555517578125,-0.01597895473241806,-0.13901691138744354,-0.11464899778366089
1771525742731557600,11.6855576171875,-0.01597895473241806,-0.16564849019050598,-0.043276336044073105
1771525742741560300,11.695560302734375,-0.0031957910396158695,-0.1603221744298935,0.028096329420804977
1771525742751563000,11.70556298828125,0.006391582079231739,-0.1315600574016571,0.09094688296318054
1771525742761565400,11.7155654296875,0.022370535880327225,-0.11025478690862656,0.15166690945625305
1771525742771568000,11.725568115234376,0.034088436514139175,-0.08575372397899628,0.18149429559707642
1771525742781570800,11.73557080078125,0.045806337147951126,-0.06018739566206932,0.19747324287891388
1771525742791573200,11.7455732421875,0.058589499443769455,-0.04314317926764488,0.21664799749851227
1771525742801576000,11.755575927734375,0.08202529698610306,-0.06338318437337875,0.2251701056957245
1771525742811578600,11.76557861328125,0.10652636736631393,-0.09747162461280823,0.2155827283859253
1771525742821581000,11.7755810546875,0.122505322098732,-0.12516847252845764,0.18895113468170166
1771525742831583700,11.785583740234374,0.12996216118335724,-0.1272990107536316,0.16977639496326447
1771525742841586400,11.79558642578125,0.12570111453533173,-0.08042740821838379,0.18575534224510193
1771525742851588900,11.8055888671875,0.11504847556352615,-0.01225053146481514,0.2102564126253128
1771525742861591600,11.815591552734375,0.10652636736631393,0.042077913880348206,0.24434484541416168
1771525742871594200,11.82559423828125,0.10226531326770782,0.08681898564100266,0.2677806615829468
1771525742881596700,11.8355966796875,0.10013478249311447,0.10599373281002045,0.27949854731559753
1771525742891599400,11.845599365234374,0.08841688185930252,0.11238531768321991,0.2709764242172241
1771525742901602000,11.85560205078125,0.06817687302827835,0.10599373281002045,0.25606274604797363
1771525742911604500,11.8656044921875,0.05539371073246002,0.09214530140161514,0.2486059069633484
1771525742921607200,11.875607177734375,0.04367581009864807,0.09534109383821487,0.2677806615829468
1771525742931609900,11.88560986328125,0.025566328316926956,0.09534109383821487,0.27417221665382385
1771525742941612300,11.8956123046875,0.022370535880327225,0.06870950758457184,0.25606274604797363
1771525742951615000,11.905614990234374,0.026631591841578484,0.01970737800002098,0.25925853848457336
1771525742961617700,11.91561767578125,0.026631591841578484,-0.018642114475369453,0.275237500667572
1771525742971620400,11.925620361328125,0.010652636177837849,-0.02396843209862709,0.2763027548789978
1771525742981623000,11.935623046875,-0.017044218257069588,-0.006924213841557503,0.24114905297756195
1771525742991625700,11.945625732421876,-0.06285055726766586,0.04527370631694794,0.14634059369564056
1771525743001628200,11.955628173828124,-0.1310274302959442,0.12410321086645126,-0.0006657897611148655
1771525743011630800,11.965630859375,-0.18642114102840424,0.1933453530073166,-0.1796300858259201
1771525743021633500,11.975633544921875,-0.17044217884540558,0.20293273031711578,-0.30852699279785156
1771525743031636200,11.98563623046875,-0.09161267429590225,0.17204007506370544,-0.3351585865020752
1771525743041639000,11.995638916015626,0.022370535880327225,0.09960214793682098,-0.23821958899497986
1771525743051641600,12.0056416015625,0.122505322098732,-0.004793686326593161,-0.07203845679759979
1771525743061644300,12.015644287109374,0.13848426938056946,-0.06977476924657822,0.061119500547647476
1771525743071647000,12.02564697265625,0.050067391246557236,-0.0942758321762085,0.1069258376955986
1771525743081649400,12.0356494140625,-0.07776424288749695,-0.11025478690862656,0.09840372949838638
1771525743091652000,12.045652099609375,-0.2162485122680664,-0.09108003973960876,0.05153212696313858
1771525743101654800,12.05565478515625,-0.32703593373298645,-0.0037284228019416332,-0.052863709628582
1771525743111657500,12.065657470703124,-0.3632549047470093,0.0985368862748146,-0.14554163813591003
1771525743121660200,12.07566015625,-0.3153180480003357,0.15180006623268127,-0.19028271734714508
1771525743131662800,12.085662841796875,-0.21944430470466614,0.17523586750030518,-0.203065887093544
1771525743141665500,12.09566552734375,-0.11824426054954529,0.16564849019050598,-0.19028271734714508
1771525743151668200,12.105668212890626,-0.030892645940184593,0.10066741704940796,-0.17749954760074615
1771525743161670700,12.115670654296874,0.03728422895073891,-0.01970737800002098,-0.16897743940353394
1771525743171673300,12.12567333984375,0.07563371956348419,-0.12942953407764435,-0.16791218519210815
1771525743181676000,12.135676025390625,0.0703074038028717,-0.22423799335956573,-0.19028271734714508
1771525743191678700,12.1456787109375,0.06285055726766586,-0.2785664498806,-0.19560903310775757
1771525743201681400,12.155681396484376,0.03728422895073891,-0.2743053734302521,-0.16897743940353394
1771525743211684000,12.16568408203125,0.0074568456038832664,-0.21891167759895325,-0.11038794368505478
1771525743221686800,12.175686767578124,-0.013848427683115005,-0.13901691138744354,-0.028362644836306572
1771525743231689500,12.185689453125,-0.022370535880327225,-0.058056868612766266,0.0366184376180172
1771525743241692000,12.19569189453125,-0.0074568456038832664,-0.021837905049324036,0.08029424399137497
1771525743251694600,12.205694580078125,0.017044218257069588,-0.01970737800002098,0.09840372949838638
1771525743261697300,12.215697265625,0.038349490612745285,-0.025033695623278618,0.12077426165342331
1771525743271700000,12.225699951171874,0.04793686419725418,-0.038882121443748474,0.1261005848646164
1771525743281702700,12.23570263671875,0.050067391246557236,-0.04740423336625099,0.11331742256879807
1771525743291705300,12.245705322265625,0.04793686419725418,-0.04420844092965126,0.10266478359699249
1771525743301708000,12.2557080078125,0.045806337147951126,-0.04527370631694794,0.09201214462518692
1771525743311710700,12.265710693359376,0.04474107176065445,-0.03994738683104515,0.08775109052658081
1771525743321713200,12.275713134765626,0.0330231711268425,-0.027164222672581673,0.08135951310396194
1771525743331715800,12.2857158203125,0.018109481781721115,-0.006924213841557503,0.06644582003355026
1771525743341718500,12.295718505859375,0.008522109128534794,0.00798947736620903,0.07709845900535583
1771525743351721200,12.30572119140625,0.0021305272821336985,0.027164222672581673,0.11864373832941055
1771525743361724000,12.315723876953125,-0.0021305272821336985,0.004793686326593161,0.16018901765346527
1771525743371726600,12.3257265625,0,-0.0516652874648571,0.18042902648448944
1771525743381729300,12.335729248046874,0.0010652636410668492,-0.10705899447202682,0.20706062018871307
1771525743391732000,12.34573193359375,0.005326318088918924,-0.14434322714805603,0.2347574681043625
1771525743401734400,12.355734375,0.011717899702489376,-0.19121482968330383,0.2475406378507614
1771525743411737000,12.365737060546875,0.022370535880327225,-0.21997694671154022,0.24008379876613617
1771525743421739800,12.37573974609375,0.017044218257069588,-0.21252009272575378,0.2241048365831375
1771525743431742500,12.385742431640624,-0.004261054564267397,-0.20293273031711578,0.21877852082252502
1771525743441745200,12.3957451171875,-0.0330231711268425,-0.17736639082431793,0.2390185296535492
1771525743451747800,12.405747802734375,-0.0564589723944664,-0.1411474347114563,0.2720417082309723
1771525743461750500,12.41575048828125,-0.05539371073246002,-0.11558110266923904,0.285890132188797
1771525743471753200,12.425753173828125,-0.042610544711351395,-0.10279794037342072,0.2241048365831375
1771525743481755600,12.435755615234376,-0.05113265663385391,-0.07936213910579681,0.0834900364279747
1771525743491758300,12.44575830078125,-0.08841688185930252,-0.034621067345142365,-0.12423637509346008
1771525743501761000,12.455760986328125,-0.1267663687467575,0.015446322970092297,-0.30426591634750366
1771525743511763700,12.465763671875,-0.11930952966213226,0.04101264849305153,-0.37989965081214905
1771525743521766400,12.475766357421875,-0.05965476483106613,0.021837905049324036,-0.37031227350234985
1771525743531769000,12.48576904296875,0.030892645940184593,-0.0708400309085846,-0.279764860868454
1771525743541771800,12.495771728515624,0.12570111453533173,-0.1976063996553421,-0.14767217636108398
1771525743551774500,12.5057744140625,0.17257271707057953,-0.3105243444442749,-0.0294279083609581
1771525743561777000,12.51577685546875,0.1310274302959442,-0.3339601457118988,0.029161592945456505
1771525743571779600,12.525779541015625,0.019174745306372643,-0.28815382719039917,-0.003861580742523074
1771525743581782300,12.5357822265625,-0.1267663687467575,-0.18908429145812988,-0.11784479022026062
1771525743591785000,12.545784912109376,-0.25566327571868896,-0.03249054029583931,-0.26698169112205505
1771525743601787600,12.55578759765625,-0.3110569715499878,0.12410321086645126,-0.3916175365447998
1771525743621793000,12.57579296875,-0.18216007947921753,0.33182963728904724,-0.46831652522087097
1771525743631795700,12.585795654296875,-0.08415582776069641,0.3850927948951721,-0.45127230882644653
1771525743641798100,12.595798095703126,0.009587372653186321,0.36378753185272217,-0.43209755420684814
1771525743651800800,12.60580078125,0.0894821435213089,0.2732401192188263,-0.4139880836009979
1771525743661803500,12.615803466796875,0.13315795361995697,0.13262532651424408,-0.3958786129951477
1771525743671806200,12.62580615234375,0.13528847694396973,-0.0005326318205334246,-0.38522595167160034
1771525743681809000,12.635808837890625,0.09800425171852112,-0.1038632020354271,-0.3404848873615265
1771525743691811600,12.6458115234375,0.038349490612745285,-0.1603221744298935,-0.25206801295280457
