time,seconds_elapsed,z,y,x
1772467503958700000,0.137699951171875,0,0,0
1772467503968700400,0.147700439453125,0.023534178733825684,-0.009163856506347656,0.02048952877521515
1772467503978701000,0.157701171875,0.10489654541015625,-0.034338951110839844,0.05024854838848114
1772467503988702200,0.1677021484375,0.13689982891082764,-0.09356021881103516,0.04634532332420349
1772467503998704000,0.1777041015625,0.0922766923904419,-0.1435108184814453,0.027090758085250854
1772467504008707300,0.187707275390625,0.04393494129180908,-0.15935039520263672,0.020273268222808838
1772467504018711000,0.1977109375,0.0625605583190918,-0.12435150146484375,-0.009270265698432922
1772467504028716300,0.20771630859375,0.0644838809967041,-0.06299400329589844,0.03571687638759613
1772467504038722300,0.217722412109375,0.07199549674987793,-0.022317886352539062,0.0846223458647728
1772467504048729300,0.227729248046875,0.11100447177886963,0.005181312561035156,0.04761771112680435
1772467504058737200,0.237737060546875,0.09211528301239014,0.012622833251953125,0.014721743762493134
1772467504068746000,0.24774609375,-0.007539868354797363,0.03706073760986328,0.042340025305747986
1772467504078755300,0.25775537109375,-0.11782348155975342,0.04672813415527344,0.037667930126190186
1772467504088766000,0.267765869140625,-0.16447198390960693,0.02510547637939453,-0.02413744479417801
1772467504098776800,0.27777685546875,-0.1164546012878418,0.014248847961425781,-0.059777989983558655
1772467504108787700,0.28778759765625,-0.06825459003448486,0.017739295959472656,-0.012810833752155304
1772467504118795500,0.29779541015625,-0.02355027198791504,0.08425712585449219,0.058476634323596954
1772467504128801500,0.307801513671875,0.009251832962036133,0.17908096313476562,0.053614646196365356
1772467504138807600,0.3178076171875,0.003963947296142578,0.19690990447998047,0.00430896133184433
1772467504148813300,0.327813232421875,0.008154511451721191,0.1779918670654297,-0.00985632836818695
1772467504158819300,0.3378193359375,-0.03322708606719971,0.15583133697509766,-0.054432131350040436
1772467504168825300,0.347825439453125,-0.026588916778564453,0.116668701171875,-0.0962575376033783
1772467504178831000,0.3578310546875,0.0580754280090332,0.03814697265625,-0.08111501485109329
1772467504188837000,0.367837158203125,0.11718416213989258,-0.01880645751953125,-0.010989174246788025
1772467504198843100,0.377843017578125,0.09669291973114014,-0.05984020233154297,-0.04433080554008484
1772467504208849200,0.38784912109375,0.017201662063598633,-0.04872703552246094,-0.05330165475606918
1772467504218855000,0.39785498046875,-0.09248900413513184,-0.04255199432373047,-0.020520932972431183
1772467504228861000,0.40786083984375,-0.10765719413757324,0.037491798400878906,-0.026823177933692932
1772467504238867000,0.417866943359375,-0.10587680339813232,0.1336374282836914,-0.02931828796863556
1772467504248872700,0.427872802734375,-0.05960869789123535,0.1066732406616211,-0.022132590413093567
1772467504258878700,0.437878662109375,0.0074803829193115234,0.011336326599121094,0.013338804244995117
1772467504268884700,0.447884765625,0.050518155097961426,-0.020904541015625,0.002210065722465515
1772467504278890500,0.457890380859375,0.004820585250854492,0.05448722839355469,0.01038224995136261
1772467504298903000,0.477903076171875,-0.05619168281555176,-0.02689647674560547,-0.010805949568748474
1772467504308908500,0.487908447265625,-0.03581345081329346,-0.08584022521972656,0.05328366160392761
1772467504318914300,0.497914306640625,0.01662898063659668,-0.07336235046386719,0.05127447843551636
1772467504328920000,0.507920166015625,0.002674579620361328,-0.028669357299804688,0.03532502055168152
1772467504338925800,0.51792578125,-0.029794812202453613,-0.05043601989746094,0.02819579839706421
1772467504348931600,0.527931640625,0.05530977249145508,-0.053046226501464844,-0.0032923370599746704
1772467504358937300,0.537937255859375,0.08705747127532959,-0.008931159973144531,0.05869495868682861
1772467504368943000,0.547943115234375,0.03954958915710449,0.09006118774414062,0.10051459074020386
1772467504378949000,0.55794921875,-0.0010086297988891602,0.2193317413330078,0.06151624023914337
1772467504398961000,0.5779609375,0.06695163249969482,0.014124870300292969,0.021977290511131287
1772467504408967200,0.58796728515625,0.18232905864715576,-0.13136768341064453,0.06704831123352051
1772467504418973200,0.59797314453125,0.15116751194000244,-0.1802988052368164,0.1296347975730896
1772467504428979200,0.607979248046875,0.004555106163024902,-0.10656452178955078,0.10731852054595947
1772467504438985200,0.617985107421875,-0.1193610429763794,-0.07675838470458984,-0.05954490602016449
1772467504448991500,0.627991455078125,-0.09945249557495117,-0.03831005096435547,-0.07331223785877228
1772467504458997500,0.63799755859375,-0.019045114517211914,-0.010004997253417969,-0.016708701848983765
1772467504469003500,0.64800341796875,0.06928420066833496,0.017729759216308594,0.04757075011730194
1772467504479009800,0.658009765625,0.047696471214294434,0.11545467376708984,0.05865900218486786
1772467504489016000,0.66801611328125,-0.04438948631286621,0.16448974609375,-0.038508713245391846
1772467504499022000,0.67802197265625,-0.07880330085754395,0.03412055969238281,-0.13329781591892242
1772467504509028000,0.688028076171875,-0.07979071140289307,-0.09389400482177734,-0.10883679986000061
1772467504519034000,0.6980341796875,-0.05183124542236328,-0.12572860717773438,-0.05167761445045471
1772467504529040100,0.7080400390625,-0.004709362983703613,-0.03484630584716797,-0.06609272956848145
1772467504539046000,0.7180458984375,-0.0012526512145996094,0.012212753295898438,-0.023506462574005127
1772467504549052000,0.728052001953125,-0.003294825553894043,0.03507804870605469,0.013691484928131104
1772467504559058000,0.738057861328125,-0.0019472837448120117,0.06721305847167969,0.012395516037940979
1772467504569064000,0.74806396484375,-0.0019649267196655273,0.0660867691040039,-0.0406523197889328
1772467504579069700,0.758069580078125,0.007123112678527832,0.08387088775634766,-0.03138825297355652
1772467504589075700,0.76807568359375,0.03480255603790283,0.040169715881347656,-0.012432947754859924
1772467504599081700,0.778081787109375,0.0335773229598999,-0.021602630615234375,0.011056765913963318
1772467504609087500,0.78808740234375,0.017530202865600586,-0.006882667541503906,0.010642781853675842
1772467504619093500,0.798093505859375,-0.0036858320236206055,0.012427330017089844,-0.022835910320281982
1772467504629099500,0.808099609375,-0.005820870399475098,0.03143024444580078,-0.018362179398536682
1772467504639105300,0.818105224609375,0.001200556755065918,0.02191925048828125,0.02381230890750885
1772467504649111300,0.828111328125,-0.0017099380493164062,0.022060394287109375,0.03273521363735199
1772467504659117300,0.838117431640625,0.0238800048828125,0.017455101013183594,0.041372150182724
1772467504669123000,0.848123046875,0.048944830894470215,0.017648696899414062,0.05901347100734711
1772467504679129000,0.858129150390625,0.03582155704498291,0.036690711975097656,0.06674055010080338
1772467504689123800,0.868123779296875,0.07040238380432129,0.036507606506347656,0.05056960880756378
1772467504699119400,0.878119384765625,0.08668947219848633,0.03612518310546875,0.04369731247425079
1772467504709116200,0.8881162109375,0.04230999946594238,0.02619171142578125,0.10313451290130615
1772467504719114500,0.898114501953125,0.06551659107208252,0.049228668212890625,0.10115817934274673
1772467504729115000,0.908114990234375,0.037366271018981934,0.015236854553222656,0.04780345410108566
1772467504739117000,0.918116943359375,-0.07067418098449707,0.02424335479736328,0.03288048505783081
1772467504749121300,0.928121337890625,-0.11663353443145752,0.04268360137939453,0.037194423377513885
1772467504759127600,0.93812744140625,-0.049428701400756836,0.05151176452636719,-0.010035261511802673
1772467504769135900,0.948135986328125,0.0025349855422973633,0.00368499755859375,-0.04258468747138977
1772467504779145700,0.958145751953125,-0.002458930015563965,-0.02458477020263672,-0.02302984893321991
1772467504789157400,0.968157470703125,-0.04104268550872803,-0.01458740234375,-0.00842585414648056
1772467504799170300,0.97817041015625,0.005466341972351074,-0.02824687957763672,-0.055378615856170654
1772467504809184000,0.98818408203125,0.01874828338623047,-0.07473373413085938,-0.0689951702952385
1772467504819198200,0.9981982421875,-0.024899959564208984,-0.0827484130859375,-0.017110250890254974
1772467504829213000,1.008212890625,-0.08706521987915039,-0.010509490966796875,0.05750051885843277
1772467504839225000,1.01822509765625,-0.08800327777862549,-0.019336700439453125,-0.014967471361160278
1772467504849230800,1.02823095703125,-0.03232431411743164,-0.018622398376464844,-0.030202269554138184
1772467504859236900,1.03823681640625,-0.052701473236083984,-0.0038309097290039062,0.025434665381908417
1772467504869243000,1.048242919921875,-0.09196579456329346,0.0013742446899414062,0.05720643699169159
1772467504879248600,1.05824853515625,-0.0837860107421875,-0.031119346618652344,-0.010101951658725739
1772467504889140200,1.06814013671875,0.02286064624786377,-0.03477954864501953,-0.05827660858631134
1772467504899040800,1.078040771484375,0.05247950553894043,-0.010148048400878906,0.04456310719251633
1772467504908954000,1.0879541015625,-0.018088340759277344,0.00010395050048828125,0.09933295845985413
1772467504918883800,1.0978837890625,-0.06474947929382324,0.05271625518798828,0.021933645009994507
1772467504928832300,1.107832275390625,-0.03561234474182129,0.08097267150878906,-0.006576254963874817
1772467504938800600,1.117800537109375,-0.0019521713256835938,0.047509193420410156,0.0654909610748291
1772467504948790000,1.1277900390625,0.03636610507965088,0.03806877136230469,0.043319590389728546
1772467504958800100,1.137800048828125,0.060622215270996094,0.03808307647705078,-0.01563803106546402
1772467504968829700,1.14782958984375,0.047202229499816895,-0.013759613037109375,-0.03538326174020767
1772467504978877400,1.15787744140625,0.019773364067077637,-0.1118021011352539,-0.03595878928899765
1772467504988940500,1.1679404296875,0.049596548080444336,-0.09055233001708984,-0.013432219624519348
1772467504999016400,1.178016357421875,0.0840369462966919,-0.07444381713867188,-0.03887456655502319
1772467505009101600,1.1881015625,0.05198109149932861,-0.06802558898925781,-0.03144189715385437
1772467505019192600,1.198192626953125,0.0015091896057128906,-0.038158416748046875,-0.029623746871948242
1772467505029285600,1.20828564453125,-0.03891909122467041,0.057166099548339844,-0.009440422058105469
1772467505039344000,1.21834423828125,-0.05532264709472656,0.14622116088867188,-0.032547980546951294
1772467505049350100,1.22835009765625,-0.052802324295043945,0.15377330780029297,0.010197415947914124
1772467505059356200,1.238356201171875,-0.04592573642730713,0.16126155853271484,0.06658506393432617
1772467505069362200,1.248362060546875,-0.010921120643615723,0.16392135620117188,0.023343563079833984
1772467505079368000,1.258367919921875,0.0010876655578613281,0.1616230010986328,0.004572153091430664
1772467505089370000,1.2683701171875,-0.014518141746520996,0.10271358489990234,0.015109524130821228
1772467505109375000,1.288375,-0.08589839935302734,-0.1521167755126953,-0.0049896687269210815
1772467505119378200,1.298378173828125,-0.05766797065734863,-0.13516616821289062,-0.055290430784225464
1772467505129382000,1.3083818359375,-0.04957222938537598,-0.07126712799072266,-0.05841901898384094
1772467505139386400,1.318386474609375,-0.0567704439163208,-0.05062389373779297,-0.010149076581001282
1772467505149391600,1.3283916015625,0.0015484094619750977,-0.016109466552734375,0.013260886073112488
1772467505159397600,1.338397705078125,0.07331967353820801,0.0460205078125,0.012255340814590454
1772467505169404200,1.348404052734375,0.09301865100860596,0.07398223876953125,0.020555436611175537
1772467505179411500,1.358411376953125,0.08025658130645752,0.05895519256591797,0.0434567928314209
1772467505189419500,1.36841943359375,0.05409860610961914,0.011126518249511719,0.05218644440174103
1772467505199427800,1.378427734375,0.024277925491333008,-0.003055572509765625,0.065700963139534
1772467505209436400,1.3884365234375,-0.018238306045532227,0.011087417602539062,0.06103159487247467
1772467505219445200,1.3984453125,-0.06431388854980469,0.03904247283935547,0.037961989641189575
1772467505229454300,1.408454345703125,-0.10040855407714844,-0.032318115234375,0.000624343752861023
1772467505239463400,1.41846337890625,-0.032340049743652344,-0.11192131042480469,-0.01863342523574829
1772467505249469400,1.428469482421875,0.03467762470245361,-0.17139339447021484,0.008476480841636658
1772467505259475500,1.438475341796875,0.08214223384857178,-0.21583271026611328,0.006078764796257019
1772467505269481200,1.448481201171875,0.03074824810028076,-0.17493152618408203,0.06947746127843857
1772467505279487200,1.4584873046875,-0.0716702938079834,-0.11585426330566406,0.042869776487350464
1772467505289489400,1.468489501953125,-0.08783328533172607,-0.048308372497558594,-0.04013840854167938
1772467505309494300,1.488494384765625,0.030995726585388184,-0.02463054656982422,0.008545786142349243
1772467505319497500,1.49849755859375,0.051900267601013184,-0.038857460021972656,0.0295402854681015
1772467505329501200,1.508501220703125,0.05023229122161865,-0.0154266357421875,-0.01119185984134674
1772467505339505700,1.518505615234375,0.05903351306915283,-0.006691932678222656,-0.02702682465314865
1772467505349510700,1.5285107421875,0.04487311840057373,-0.017061233520507812,0.014591239392757416
1772467505359516700,1.5385166015625,0.00760042667388916,-0.050830841064453125,0.02282796800136566
1772467505369523200,1.548523193359375,0.013313531875610352,-0.03223609924316406,0.0073803141713142395
1772467505379530500,1.558530517578125,0.03306126594543457,0.02843761444091797,0.011788859963417053
1772467505389538300,1.568538330078125,0.0526958703994751,0.01744556427001953,0.01230950653553009
1772467505399546600,1.578546630859375,0.08673012256622314,-0.0028905868530273438,-0.006244942545890808
1772467505409555500,1.588555419921875,0.08814108371734619,-0.013629913330078125,0.017840169370174408
1772467505419564300,1.598564208984375,0.08504068851470947,-0.019515037536621094,-0.0006983056664466858
1772467505429573400,1.608573486328125,0.05363881587982178,0.017091751098632812,-0.010037370026111603
1772467505439582500,1.61858251953125,0.023050427436828613,0.029497146606445312,-0.01956077665090561
1772467505449588700,1.628588623046875,0.0021924972534179688,0.05115318298339844,-0.03843739628791809
1772467505459594500,1.638594482421875,-0.004778504371643066,0.09139537811279297,-0.0002918839454650879
1772467505469600500,1.6486005859375,0.006907105445861816,0.08864784240722656,-0.01926329731941223
1772467505479606500,1.6586064453125,0.05074489116668701,0.1660909652709961,-0.03912750631570816
1772467505489608700,1.668608642578125,0.06447422504425049,0.22831153869628906,-0.026352904736995697
1772467505509613300,1.68861328125,0.1123206615447998,0.07451152801513672,-0.011778540909290314
1772467505519616500,1.698616455078125,0.10926806926727295,0.0255279541015625,-0.019744589924812317
1772467505529620500,1.708620361328125,0.07310616970062256,-0.008478164672851562,-0.04666483402252197
1772467505539625000,1.718625,-0.0006325244903564453,-0.022995948791503906,-0.035910576581954956
1772467505549630000,1.7286298828125,-0.00845324993133545,0.04769420623779297,-0.03986039757728577
1772467505559636000,1.738635986328125,0.0015549659729003906,0.09385871887207031,-0.03955891728401184
1772467505569642500,1.748642578125,-0.02729344367980957,0.11589336395263672,0.012747466564178467
1772467505579649800,1.75864990234375,-0.04715454578399658,0.05768013000488281,0.03171616047620773
1772467505589657600,1.76865771484375,-0.029520273208618164,-0.037138938903808594,0.003675982356071472
1772467505599666000,1.778666015625,0.06817567348480225,-0.10688304901123047,-0.00006154179573059082
1772467505609674500,1.788674560546875,0.13630151748657227,-0.1378459930419922,0.05788744240999222
1772467505619683600,1.79868359375,0.15691733360290527,-0.17312240600585938,0.08680559694766998
1772467505629692400,1.8086923828125,0.12610340118408203,-0.1749715805053711,0.05905715376138687
1772467505639701500,1.818701416015625,0.101523756980896,-0.15813064575195312,0.02734491229057312
1772467505649707800,1.828707763671875,0.11193728446960449,-0.1371469497680664,0.02906908094882965
1772467505659713800,1.8387138671875,0.06259453296661377,-0.14033889770507812,0.09723442792892456
1772467505669719800,1.8487197265625,-0.01806938648223877,-0.1200723648071289,0.07057475298643112
1772467505679725600,1.8587255859375,-0.1016916036605835,-0.11904525756835938,-0.007417690008878708
1772467505689727700,1.868727783203125,-0.1604834794998169,-0.12272262573242188,-0.023189689964056015
1772467505709732600,1.888732666015625,-0.08074915409088135,-0.09195327758789062,0.011118248105049133
1772467505719735800,1.89873583984375,0.019898295402526855,-0.08659934997558594,-0.004673067480325699
1772467505729739500,1.908739501953125,0.016501903533935547,-0.015621185302734375,0.026823174208402634
1772467505739744000,1.918743896484375,-0.03351485729217529,0.0023145675659179688,0.024953708052635193
1772467505749749000,1.9287490234375,-0.06406867504119873,-0.00826263427734375,-0.024517066776752472
1772467505759755000,1.938755126953125,-0.06627285480499268,0.000244140625,-0.055147506296634674
1772467505769761500,1.948761474609375,-0.02626657485961914,0.03219127655029297,-0.057305242866277695
1772467505779768800,1.958768798828125,0.03180742263793945,0.07775115966796875,-0.012730935588479042
1772467505789776600,1.968776611328125,0.0847158432006836,0.08480358123779297,-0.01139632798731327
1772467505799785000,1.978784912109375,0.09047400951385498,0.06335735321044922,-0.042622603476047516
1772467505809793800,1.988793701171875,0.07280123233795166,0.061074256896972656,-0.016439346596598625
1772467505819802600,1.998802734375,0.050309062004089355,0.09186077117919922,-0.061697572469711304
1772467505829811700,2.008811767578125,0.013455986976623535,0.14107418060302734,-0.01694352552294731
1772467505839820800,2.01882080078125,-0.02901625633239746,0.18972206115722656,-0.0007831640541553497
1772467505849827000,2.0288271484375,0.007636547088623047,0.218994140625,-0.0651416927576065
1772467505859832800,2.038832763671875,0.05729568004608154,0.18194293975830078,-0.07671579718589783
1772467505869838800,2.0488388671875,0.08197355270385742,0.09381580352783203,-0.03096531704068184
1772467505879844900,2.058844970703125,0.09641575813293457,0.007224082946777344,0.0001852453569881618
1772467505889847000,2.068846923828125,0.09628725051879883,-0.03080463409423828,-0.06838260591030121
1772467505919854800,2.098854736328125,-0.22705674171447754,0.08297061920166016,-0.01470743678510189
1772467505929858800,2.10885888671875,-0.14683973789215088,0.1433858871459961,-0.019883885979652405
1772467505939863300,2.11886328125,-0.031920671463012695,0.16068172454833984,-0.0149046890437603
1772467505949868500,2.12886865234375,0.033180952072143555,0.11190319061279297,0.023650234565138817
1772467505959874300,2.138874267578125,0.05000889301300049,0.00274658203125,0.015053716488182545
1772467505969881000,2.148881103515625,0.005650043487548828,-0.07167530059814453,0.011205805465579033
1772467505979888000,2.15888818359375,-0.04237163066864014,-0.1260690689086914,0.054642122238874435
1772467505989896000,2.16889599609375,-0.027768850326538086,-0.21732330322265625,0.017645690590143204
1772467505999904300,2.178904296875,0.016473054885864258,-0.2696561813354492,0.03261738270521164
1772467506009913000,2.1889130859375,0.02373480796813965,-0.1895122528076172,0.06081990525126457
1772467506019922000,2.198921875,0.008045315742492676,-0.03548431396484375,0.054778456687927246
1772467506029931000,2.208930908203125,-0.011684179306030273,0.06411457061767578,0.029189718887209892
1772467506039939800,2.21893994140625,-0.04019629955291748,0.14787769317626953,0.060089658945798874
1772467506049946000,2.228946044921875,-0.029751062393188477,0.16418838500976562,0.08180349320173264
1772467506059952000,2.2389521484375,-0.004338264465332031,0.14709854125976562,0.08025605976581573
1772467506069958100,2.248958251953125,0.016552448272705078,0.0878133773803711,0.046316154301166534
1772467506079964000,2.2589638671875,0.0285947322845459,0.015240669250488281,0.026558514684438705
1772467506089966000,2.268966064453125,0.04125010967254639,-0.05154705047607422,-0.007759314030408859
1772467506109971000,2.288970947265625,0.001325845718383789,-0.1020059585571289,0.03966724872589111
1772467506119974100,2.29897412109375,0.015349149703979492,-0.08222675323486328,0.03618887811899185
1772467506129977900,2.308977783203125,0.0530858039855957,-0.0204620361328125,-0.04262346774339676
1772467506139982300,2.318982421875,0.06685447692871094,0.06849384307861328,-0.04973185434937477
1772467506149987600,2.328987548828125,0.06617105007171631,0.10419178009033203,-0.08520783483982086
1772467506159993600,2.33899365234375,0.06550455093383789,0.06867122650146484,-0.1252218633890152
1772467506170000100,2.349000244140625,0.04642605781555176,0.0054264068603515625,-0.11751434952020645
1772467506180007400,2.35900732421875,0.037589430809020996,-0.07097053527832031,-0.10955081880092621
1772467506190015200,2.36901513671875,-0.004267692565917969,-0.09897041320800781,-0.10624854266643524
1772467506200023600,2.3790234375,-0.05104970932006836,-0.06985092163085938,-0.0888194739818573
1772467506210032000,2.3890322265625,-0.060800790786743164,0.015517234802246094,-0.07185202836990356
1772467506220041000,2.399041015625,-0.015407443046569824,0.05732917785644531,-0.04988701641559601
1772467506230050000,2.409050048828125,0.04786098003387451,0.06551456451416016,0.019393473863601685
1772467506240059100,2.41905908203125,0.04435575008392334,0.07352447509765625,0.08406172692775726
1772467506250065400,2.4290654296875,0.04591691493988037,0.038969993591308594,0.07867731899023056
1772467506260071200,2.4390712890625,0.05205690860748291,-0.027956008911132812,0.07907353341579437
1772467506270077200,2.4490771484375,0.019715547561645508,-0.032444000244140625,0.11292172223329544
1772467506280083200,2.459083251953125,-0.008292913436889648,-0.02259063720703125,0.10004200041294098
1772467506290085400,2.46908544921875,0.01524496078491211,-0.04575061798095703,0.06428870558738708
1772467506310090200,2.48909033203125,0.02236151695251465,0.035251617431640625,0.055149588733911514
1772467506320093200,2.49909326171875,0.05337882041931152,0.0019407272338867188,0.06279459595680237
1772467506330097000,2.509096923828125,0.056030869483947754,-0.03558826446533203,0.08000936359167099
1772467506340101400,2.519101318359375,0.04471230506896973,-0.04897880554199219,0.05448134243488312
1772467506350106600,2.529106689453125,-0.008897185325622559,-0.062127113342285156,0.03371237963438034
1772467506360112400,2.5391123046875,-0.052703022956848145,-0.06555557250976562,0.03156990557909012
1772467506370119200,2.549119140625,-0.0545191764831543,-0.026368141174316406,0.05711154267191887
1772467506380126500,2.55912646484375,-0.00532376766204834,-0.03949546813964844,0.010330833494663239
1772467506390134300,2.56913427734375,-0.018566131591796875,-0.005249977111816406,0.07181544601917267
1772467506400142600,2.579142578125,-0.03660225868225098,0.0190582275390625,0.0994650274515152
1772467506410151200,2.589151123046875,0.011784553527832031,-0.004155158996582031,0.037133656442165375
1772467506420160300,2.59916015625,0.06488645076751709,-0.012984275817871094,0.06485743075609207
1772467506430169300,2.60916943359375,0.10850036144256592,-0.05946540832519531,0.12031814455986023
1772467506440178400,2.619178466796875,0.13336777687072754,-0.10530376434326172,0.14191074669361115
1772467506460190500,2.6391904296875,0.2271404266357422,-0.16677474975585938,0.12308266758918762
1772467506470196200,2.6491962890625,0.2496967315673828,-0.16445159912109375,0.17242181301116943
1772467506480202200,2.6592021484375,0.2218097448348999,-0.13890552520751953,0.16888901591300964
1772467506490208300,2.669208251953125,0.17165637016296387,-0.0762472152709961,0.1462073177099228
1772467506500214000,2.679214111328125,0.10421383380889893,-0.06654167175292969,0.14741119742393494
1772467506510220000,2.689219970703125,0.08497631549835205,-0.11820793151855469,0.18192356824874878
1772467506520226000,2.69922607421875,0.10331606864929199,-0.1454010009765625,0.1830318123102188
1772467506530232000,2.709232177734375,0.16301822662353516,-0.09668350219726562,0.13178783655166626
1772467506540237800,2.71923779296875,0.1975785493850708,-0.06280326843261719,0.12818463146686554
1772467506550243800,2.729243896484375,0.24077939987182617,-0.07182979583740234,0.16693660616874695
1772467506560249900,2.739249755859375,0.25971150398254395,-0.08070659637451172,0.19585871696472168
1772467506570255600,2.749255615234375,0.2924473285675049,-0.06589508056640625,0.14960096776485443
1772467506580261600,2.75926171875,0.3712124824523926,-0.13600444793701172,0.1090756431221962
1772467506590267600,2.769267578125,0.37764525413513184,-0.15778541564941406,0.2137129306793213
1772467506610279400,2.789279541015625,0.44404709339141846,-0.10245418548583984,0.18845900893211365
1772467506620285400,2.799285400390625,0.4435354471206665,-0.17643260955810547,0.17976485192775726
1772467506630291200,2.809291259765625,0.4718775749206543,-0.18336105346679688,0.21875526010990143
1772467506640297200,2.819297119140625,0.4715876579284668,-0.18548965454101562,0.24852421879768372
1772467506650303200,2.82930322265625,0.3949538469314575,-0.22980213165283203,0.27361494302749634
1772467506660309200,2.839309326171875,0.3510485887527466,-0.3296346664428711,0.27042654156684875
1772467506670315000,2.84931494140625,0.31167304515838623,-0.4606132507324219,0.2015397846698761
1772467506680321000,2.859321044921875,0.28614330291748047,-0.5892572402954102,0.1955883651971817
1772467506690327000,2.8693271484375,0.3313426971435547,-0.7251243591308594,0.1620282232761383
1772467506700332800,2.879332763671875,0.4601377248764038,-0.7785978317260742,0.07607333362102509
1772467506710338800,2.8893388671875,0.581998348236084,-0.7463846206665039,0.008298233151435852
1772467506720344800,2.8993447265625,0.7779026031494141,-0.7006750106811523,-0.12220355123281479
1772467506730350600,2.9093505859375,0.9063727855682373,-0.5759420394897461,-0.2256506085395813
1772467506740356600,2.919356689453125,0.8839682340621948,-0.3641204833984375,-0.25066331028938293
1772467506750362600,2.929362548828125,0.6788409948348999,-0.03346443176269531,-0.19758450984954834
1772467506760368400,2.939368408203125,0.4518493413925171,0.4097414016723633,-0.13783594965934753
1772467506770374400,2.94937451171875,0.2732027769088745,0.7330389022827148,-0.16480080783367157
1772467506780380400,2.95938037109375,0.1277397871017456,1.0043792724609375,-0.07842221856117249
1772467506790386400,2.969386474609375,0.07136189937591553,1.1492729187011719,-0.11444751918315887
1772467506800392200,2.97939208984375,0.0651928186416626,1.1462249755859375,-0.06787236034870148
1772467506810398200,2.989398193359375,0.1375361680984497,0.9222040176391602,-0.09095600247383118
1772467506820404200,2.999404296875,0.17917442321777344,0.6503458023071289,-0.0653323233127594
1772467506830410000,3.009409912109375,0.2242065668106079,0.28896522521972656,-0.07210338115692139
1772467506840416000,3.019416015625,0.4145399332046509,-0.09936714172363281,-0.06346167623996735
1772467506850422000,3.029422119140625,0.6212472915649414,-0.36363792419433594,0.04960450530052185
1772467506860427800,3.039427734375,0.7023807764053345,-0.5529422760009766,0.07795485854148865
1772467506870433800,3.049433837890625,0.7030056715011597,-0.6639184951782227,-0.11906793713569641
1772467506880439800,3.059439697265625,0.7098370790481567,-0.7308988571166992,-0.4695338010787964
1772467506890445600,3.069445556640625,0.7372912168502808,-0.7358407974243164,-0.6473737955093384
1772467506900451600,3.07945166015625,0.7610210180282593,-0.5760765075683594,-0.5860322713851929
1772467506910457600,3.08945751953125,0.7856426239013672,-0.26374244689941406,-0.4777194857597351
1772467506920463600,3.099463623046875,0.7595319747924805,0.052593231201171875,-0.4822511672973633
1772467506930469400,3.109469482421875,0.603272557258606,0.39642333984375,-0.4600570499897003
1772467506940475400,3.119475341796875,0.483931303024292,0.6589412689208984,-0.419838011264801
1772467506950481400,3.1294814453125,0.4153742790222168,0.7707653045654297,-0.41721785068511963
1772467506960487200,3.139487060546875,0.3731670379638672,0.7673435211181641,-0.4507460594177246
1772467506970493200,3.1494931640625,0.3662118911743164,0.6506271362304688,-0.3932737708091736
1772467506980499200,3.159499267578125,0.37920212745666504,0.5167722702026367,-0.28786230087280273
1772467506990505000,3.1695048828125,0.41628098487854004,0.39434337615966797,-0.18189607560634613
1772467507000511000,3.179510986328125,0.3817260265350342,0.39165210723876953,-0.0038507580757141113
1772467507010517000,3.18951708984375,0.3371138572692871,0.2761402130126953,-0.01360824704170227
1772467507020523000,3.19952294921875,0.30616116523742676,0.04970836639404297,-0.01106637716293335
1772467507030528800,3.20952880859375,0.4207580089569092,-0.3188333511352539,0.004026204347610474
1772467507040534800,3.21953466796875,0.669879674911499,-0.7896089553833008,0.040736258029937744
1772467507050540800,3.229540771484375,0.894373893737793,-1.2030057907104492,0.07060566544532776
1772467507060546600,3.239546630859375,0.9996261596679688,-1.5389366149902344,0.030414819717407227
1772467507070552600,3.249552490234375,1.047675371170044,-1.7163991928100586,-0.027915358543395996
1772467507080558600,3.25955859375,1.086158037185669,-1.740591049194336,-0.15764324367046356
1772467507090564400,3.269564453125,1.1295738220214844,-1.5833702087402344,-0.25914478302001953
1772467507100570400,3.2795703125,1.14447021484375,-1.2978219985961914,-0.29386666417121887
1772467507110576400,3.289576416015625,1.1019566059112549,-0.9940605163574219,-0.3622255027294159
1772467507120582100,3.29958203125,1.0785837173461914,-0.7341957092285156,-0.49263161420822144
1772467507130588200,3.309588134765625,1.0696282386779785,-0.4942359924316406,-0.5036719441413879
1772467507140594200,3.31959423828125,1.027292013168335,-0.2598114013671875,-0.44258660078048706
1772467507150600200,3.32960009765625,1.0328280925750732,-0.035671234130859375,-0.4815455973148346
1772467507160606000,3.33960595703125,0.9526412487030029,0.16863727569580078,-0.4821569323539734
1772467507170612000,3.349612060546875,0.7906455993652344,0.2818136215209961,-0.4683261513710022
1772467507180618000,3.359617919921875,0.6325087547302246,0.3567638397216797,-0.4689865708351135
1772467507190623700,3.369623779296875,0.588484525680542,0.38873767852783203,-0.4603918492794037
1772467507200629800,3.379629638671875,0.62021803855896,0.4207906723022461,-0.4235663414001465
1772467507210635800,3.3896357421875,0.6752753257751465,0.4385404586791992,-0.387420117855072
1772467507220641500,3.3996416015625,0.7060723304748535,0.40378665924072266,-0.3372882008552551
1772467507230647600,3.4096474609375,0.8136379718780518,0.22105693817138672,-0.34931647777557373
1772467507250659600,3.42965966796875,0.9014532566070557,0.023751258850097656,-0.3212892413139343
1772467507270671400,3.44967138671875,0.8879053592681885,-0.10086822509765625,-0.42015349864959717
1772467507280677400,3.459677490234375,0.8985476493835449,-0.06703567504882812,-0.44513463973999023
1772467507290683400,3.469683349609375,0.9031918048858643,-0.04736614227294922,-0.46996015310287476
1772467507300689400,3.479689453125,0.9107809066772461,-0.017816543579101562,-0.45122212171554565
1772467507310695400,3.4896953125,0.8920629024505615,0.121978759765625,-0.41340625286102295
1772467507320701400,3.499701416015625,0.9036989212036133,0.28114986419677734,-0.476287305355072
1772467507330707500,3.50970751953125,0.8595578670501709,0.4692268371582031,-0.47757402062416077
1772467507340713500,3.51971337890625,0.8361799716949463,0.657496452331543,-0.4698913097381592
1772467507350719500,3.529719482421875,0.8677434921264648,0.8553466796875,-0.42448508739471436
1772467507360725500,3.5397255859375,0.8589005470275879,1.014948844909668,-0.30750393867492676
1772467507370731300,3.549731201171875,0.8143315315246582,1.069636344909668,-0.2662416100502014
1772467507380737300,3.5597373046875,0.7580175399780273,1.0292844772338867,-0.26770955324172974
1772467507390743300,3.569743408203125,0.7435314655303955,0.9416971206665039,-0.22088439762592316
1772467507400749300,3.579749267578125,0.7045137882232666,0.821202278137207,-0.1442546844482422
1772467507420761300,3.59976123046875,0.47704601287841797,0.43893909454345703,-0.13598451018333435
1772467507430767400,3.609767333984375,0.4184577465057373,0.20592117309570312,-0.22114287316799164
1772467507440773400,3.6197734375,0.44582581520080566,-0.07880687713623047,-0.2936154007911682
1772467507450779400,3.629779296875,0.49144744873046875,-0.24783706665039062,-0.28903400897979736
1772467507460785200,3.63978515625,0.5739495754241943,-0.15337371826171875,-0.14624552428722382
1772467507470791200,3.649791259765625,0.7036781311035156,-0.0064754486083984375,-0.14741382002830505
1772467507480797200,3.659797119140625,0.7674198150634766,0.23052501678466797,-0.053133685141801834
1772467507490803200,3.66980322265625,0.780890941619873,0.48065948486328125,0.03279790282249451
1772467507500809200,3.679809326171875,0.7543802261352539,0.7532730102539062,0.13532350957393646
1772467507510815200,3.689815185546875,0.7166590690612793,1.096034049987793,0.38899344205856323
1772467507520821200,3.6998212890625,0.5916903018951416,1.4226799011230469,0.5945949554443359
1772467507530827300,3.7098271484375,0.4331698417663574,1.7472896575927734,0.6778591871261597
1772467507540833300,3.719833251953125,0.22785329818725586,1.9358320236206055,0.809219479560852
1772467507550839300,3.72983935546875,-0.037694692611694336,2.0313873291015625,0.9863442182540894
1772467507560845000,3.739844970703125,-0.3394620418548584,1.9339275360107422,0.9660720229148865
1772467507570851000,3.74985107421875,-0.6688027381896973,1.4819421768188477,0.7663319110870361
1772467507580857000,3.759857177734375,-0.9800941944122314,0.7248086929321289,0.5535324215888977
1772467507590863000,3.769863037109375,-1.2141005992889404,-0.15914154052734375,0.3531266748905182
1772467507600868900,3.779868896484375,-1.2877882719039917,-0.8631954193115234,0.21879056096076965
1772467507610875000,3.789875,-1.192457914352417,-1.3495559692382812,0.05799487233161926
1772467507620881000,3.799880859375,-1.076623797416687,-1.6761407852172852,-0.045130837708711624
1772467507630886700,3.80988671875,-0.9589554071426392,-1.8292150497436523,-0.024558091536164284
1772467507640892700,3.819892578125,-0.8285986185073853,-1.790513038635254,0.03874540328979492
1772467507650898700,3.829898681640625,-0.5973997116088867,-1.5229501724243164,0.13540664315223694
1772467507660904400,3.839904541015625,-0.4024958610534668,-1.1326322555541992,0.2624170184135437
1772467507670910500,3.849910400390625,-0.30475282669067383,-0.8494052886962891,0.33527469635009766
1772467507680916500,3.85991650390625,-0.33743786811828613,-0.6586151123046875,0.45504629611968994
1772467507690922200,3.869922119140625,-0.5111672878265381,-0.4593353271484375,0.550353467464447
1772467507700928300,3.87992822265625,-0.7659124135971069,-0.1840839385986328,0.6225526928901672
1772467507710934300,3.889934326171875,-1.0269804000854492,0.028939247131347656,0.6639338731765747
1772467507720940300,3.899940185546875,-1.1899141073226929,0.094085693359375,0.6180706024169922
1772467507730946000,3.909946044921875,-1.2317262887954712,0.059660911560058594,0.5758388042449951
1772467507740952000,3.9199521484375,-1.1474581956863403,-0.1124105453491211,0.48378628492355347
1772467507750958000,3.9299580078125,-0.9799097776412964,-0.4362211227416992,0.38862714171409607
1772467507760963800,3.9399638671875,-0.7430003881454468,-0.8733234405517578,0.3030724823474884
1772467507770969900,3.949969970703125,-0.5173723697662354,-1.323312759399414,0.24896299839019775
1772467507780975900,3.959975830078125,-0.37859225273132324,-1.5857820510864258,0.24965715408325195
1772467507790981600,3.969981689453125,-0.33558082580566406,-1.7759571075439453,0.1957850307226181
1772467507800987600,3.979987548828125,-0.220320463180542,-1.7891159057617188,0.1588224321603775
1772467507810993700,3.98999365234375,-0.14122295379638672,-1.7168922424316406,0.16845588386058807
1772467507820999400,3.99999951171875,-0.09870529174804688,-1.5593738555908203,0.16761717200279236
1772467507831005400,4.01000537109375,-0.0979466438293457,-1.3261995315551758,0.18987217545509338
1772467507841011500,4.020011474609375,-0.12500905990600586,-1.1320581436157227,0.22635649144649506
1772467507851017500,4.030017578125,-0.10381412506103516,-1.0197315216064453,0.26841166615486145
1772467507861023200,4.040023193359375,-0.024733781814575195,-0.9030904769897461,0.3348844349384308
1772467507871029200,4.050029296875,0.059851884841918945,-0.7822237014770508,0.3682989180088043
1772467507881035300,4.06003515625,0.11669540405273438,-0.676300048828125,0.41203686594963074
1772467507891041000,4.070041015625,0.13122916221618652,-0.585205078125,0.5097270011901855
1772467507901047000,4.080047119140625,0.08393740653991699,-0.5947427749633789,0.5566998720169067
1772467507911053000,4.090052978515625,0.11785769462585449,-0.6281299591064453,0.5958417654037476
1772467507921058800,4.100058837890625,0.24262738227844238,-0.6280727386474609,0.6185441017150879
1772467507931064800,4.11006494140625,0.33282017707824707,-0.5848302841186523,0.6146329045295715
1772467507941070800,4.12007080078125,0.36385154724121094,-0.4505329132080078,0.6648392677307129
1772467507951076600,4.13007666015625,0.3830382823944092,-0.4592924118041992,0.6157546043395996
1772467507961082600,4.14008251953125,0.5198640823364258,-0.5010089874267578,0.5525936484336853
1772467507971088600,4.150088623046875,0.7086725234985352,-0.509119987487793,0.537115216255188
1772467507981094700,4.1600947265625,0.8985085487365723,-0.45072078704833984,0.5024665594100952
1772467507991100400,4.170100341796875,1.0574440956115723,-0.37891483306884766,0.43955186009407043
1772467508001106400,4.1801064453125,1.0515170097351074,-0.20767879486083984,0.38112080097198486
1772467508011112400,4.190112548828125,1.0385725498199463,0.06757068634033203,0.23095282912254333
1772467508021118200,4.2001181640625,1.042008638381958,0.4323749542236328,0.20873896777629852
1772467508031124200,4.210124267578125,1.0323169231414795,0.7816429138183594,0.16689449548721313
1772467508041130200,4.220130126953125,0.9612636566162109,1.0630054473876953,0.04352220520377159
1772467508051136000,4.230135986328125,0.8661003112792969,1.3437862396240234,-0.042232759296894073
1772467508061142000,4.24014208984375,0.6930253505706787,1.5287904739379883,-0.018948927521705627
1772467508071148000,4.25014794921875,0.45971107482910156,1.594782829284668,-0.08755984157323837
1772467508081154000,4.260154052734375,0.125960111618042,1.728872299194336,-0.10477382689714432
1772467508091159800,4.270159912109375,-0.186537504196167,1.8694887161254883,-0.03206534683704376
1772467508101165800,4.280165771484375,-0.39359164237976074,1.9215421676635742,0.05368011072278023
1772467508111171800,4.290171875,-0.49088478088378906,1.914015769958496,0.277549684047699
1772467508121177600,4.300177490234375,-0.2961544990539551,1.8898601531982422,0.2853996753692627
1772467508131183600,4.31018359375,-0.03135061264038086,1.6955089569091797,0.22227759659290314
1772467508141189600,4.320189697265625,0.14807748794555664,1.4980087280273438,0.3026292324066162
1772467508151195400,4.3301953125,0.44509267807006836,1.5165491104125977,0.43565770983695984
1772467508161201400,4.340201416015625,0.8085834980010986,1.6641559600830078,0.5313624739646912
1772467508171207400,4.35020751953125,1.1360270977020264,1.758218765258789,0.4462292194366455
1772467508181213200,4.360213134765625,1.2587852478027344,1.7549028396606445,0.26592037081718445
1772467508191219200,4.37021923828125,1.0501093864440918,1.7064123153686523,0.18722721934318542
1772467508201225200,4.38022509765625,0.4759650230407715,1.5940971374511719,0.11500828713178635
1772467508211231200,4.390231201171875,-0.17949414253234863,1.4716053009033203,-0.01374075748026371
1772467508221237000,4.400237060546875,-0.7669649124145508,1.4546947479248047,-0.17217771708965302
1772467508231243000,4.410242919921875,-1.1890337467193604,1.515263557434082,-0.3806362450122833
1772467508241249000,4.4202490234375,-1.5241360664367676,1.4052486419677734,-0.5546059012413025
1772467508251254800,4.4302548828125,-1.6958341598510742,1.0438470840454102,-0.6084715127944946
1772467508261260800,4.4402607421875,-1.6074644327163696,0.4312572479248047,-0.6290485262870789
1772467508271266800,4.450266845703125,-1.4187277555465698,-0.28960418701171875,-0.5925461649894714
1772467508281272600,4.4602724609375,-1.2472707033157349,-0.8420534133911133,-0.45535895228385925
1772467508291278600,4.470278564453125,-1.116339921951294,-1.1216154098510742,-0.3127356469631195
1772467508301284600,4.48028466796875,-0.8816447257995605,-1.0576181411743164,-0.20735114812850952
1772467508311290400,4.490290283203125,-0.585533857345581,-0.6607770919799805,-0.08563974499702454
1772467508321296400,4.50029638671875,-0.3126339912414551,-0.2285928726196289,0.015692085027694702
1772467508331302400,4.510302490234375,-0.271881103515625,0.10466384887695312,0.1607535183429718
1772467508341308400,4.520308349609375,-0.47858452796936035,0.42563533782958984,0.31435680389404297
1772467508351314200,4.530314208984375,-0.761777400970459,0.6822700500488281,0.3441445231437683
1772467508361320200,4.5403203125,-0.979665994644165,0.7224063873291016,0.3078141212463379
1772467508371326200,4.550326171875,-1.1003135442733765,0.5326747894287109,0.29133936762809753
1772467508381332000,4.56033203125,-1.158057451248169,0.0803976058959961,0.2666051685810089
1772467508391338000,4.570337890625,-1.1773338317871094,-0.6718301773071289,0.1609492301940918
1772467508401344000,4.580343994140625,-1.1732630729675293,-1.5510292053222656,0.12551304697990417
1772467508411349800,4.590349853515625,-1.102630615234375,-2.2894697189331055,0.16398507356643677
1772467508421355800,4.600355712890625,-0.9269082546234131,-2.830331325531006,0.11343376338481903
1772467508431361800,4.61036181640625,-0.7986774444580078,-3.174220561981201,-0.0709753930568695
1772467508441367600,4.620367431640625,-0.6553666591644287,-3.3790016174316406,-0.21472950279712677
1772467508451373600,4.63037353515625,-0.5252640247344971,-3.469024658203125,-0.2849564552307129
1772467508461379600,4.640379638671875,-0.4227478504180908,-3.368119239807129,-0.29161375761032104
1772467508471385600,4.650385498046875,-0.381946325302124,-3.071744441986084,-0.33480823040008545
1772467508481391400,4.660391357421875,-0.37906432151794434,-2.7092714309692383,-0.4096006155014038
1772467508491397400,4.6703974609375,-0.35643434524536133,-2.338285446166992,-0.4287562370300293
1772467508501403400,4.6804033203125,-0.3674037456512451,-1.9108328819274902,-0.38153108954429626
1772467508511409200,4.6904091796875,-0.3496584892272949,-1.5560731887817383,-0.3202120363712311
1772467508521415200,4.700415283203125,-0.25460219383239746,-1.3123321533203125,-0.21093027293682098
1772467508531421200,4.710421142578125,-0.1729416847229004,-1.0122861862182617,-0.061505675315856934
1772467508541427000,4.720427001953125,-0.22886323928833008,-0.6656570434570312,0.024015218019485474
1772467508551433000,4.730432861328125,-0.34661078453063965,-0.27227115631103516,0.07519739866256714
1772467508561439000,4.74043896484375,-0.4079306125640869,0.048758506774902344,0.04394197463989258
1772467508571444700,4.75044482421875,-0.4665181636810303,0.25498485565185547,-0.11425170302391052
1772467508581450800,4.76045068359375,-0.36547017097473145,0.37079620361328125,-0.22266033291816711
1772467508591456800,4.770456787109375,-0.21529912948608398,0.24365806579589844,-0.19592760503292084
1772467508601462800,4.780462890625,0.0035059452056884766,0.0746316909790039,-0.09672288596630096
1772467508611468500,4.790468505859375,0.2911820411682129,-0.0073223114013671875,-0.1503736823797226
1772467508621474600,4.800474609375,0.47156429290771484,0.0642557144165039,-0.20948384702205658
1772467508641486300,4.820486328125,0.4968404769897461,0.4088172912597656,-0.17100532352924347
1772467508651492400,4.830492431640625,0.5276460647583008,0.6483440399169922,-0.1840522438287735
1772467508661498400,4.840498291015625,0.5655889511108398,0.9405584335327148,-0.11201608180999756
1772467508671504100,4.850504150390625,0.5673184394836426,1.1421031951904297,-0.034587547183036804
1772467508681510100,4.86051025390625,0.5331323146820068,1.2627086639404297,-0.033035099506378174
1772467508691516200,4.87051611328125,0.4874544143676758,1.364567756652832,-0.04137423634529114
1772467508701522000,4.88052197265625,0.3826639652252197,1.5002450942993164,-0.00719335675239563
1772467508711528000,4.89052783203125,0.3676481246948242,1.6503324508666992,0.008271664381027222
1772467508721534000,4.900533935546875,0.4109218120574951,1.7997722625732422,0.08199641108512878
1772467508731540000,4.9105400390625,0.36572933197021484,1.8286705017089844,0.13349901139736176
1772467508741545700,4.920545654296875,0.3251175880432129,1.8083171844482422,-0.00970381498336792
1772467508751551700,4.9305517578125,0.150742769241333,1.6814842224121094,-0.21085691452026367
1772467508761557800,4.940557861328125,-0.010374069213867188,1.5396690368652344,-0.39134302735328674
1772467508771563500,4.9505634765625,-0.07216930389404297,1.292140007019043,-0.6534078121185303
1772467508781569500,4.960569580078125,-0.09332680702209473,1.140167236328125,-0.8556382656097412
1772467508791575600,4.970575439453125,-0.042243242263793945,1.3754920959472656,-0.8430373668670654
1772467508801581300,4.980581298828125,0.05188488960266113,1.9160985946655273,-0.5532495975494385
1772467508811587300,4.99058740234375,0.12249374389648438,2.6321277618408203,-0.14144769310951233
1772467508821593300,5.00059326171875,-0.0006926059722900391,3.3744564056396484,0.3166995942592621
1772467508831599400,5.010599365234375,-0.33638763427734375,3.9040021896362305,0.8760993480682373
1772467508841605000,5.020605224609375,-0.9146158695220947,3.925541877746582,1.0971037149429321
1772467508851611100,5.030611083984375,-1.2563114166259766,3.4066381454467773,0.831171989440918
1772467508861617200,5.0406171875,-1.3367770910263062,2.5441370010375977,0.4631568193435669
1772467508871623000,5.050622802734375,-1.4353148937225342,1.4684772491455078,0.36764636635780334
1772467508881629000,5.06062890625,-1.5126426219940186,0.4776477813720703,0.4581630229949951
1772467508891635000,5.070635009765625,-1.365291953086853,-0.0601654052734375,0.45551159977912903
1772467508901640700,5.080640625,-1.0318286418914795,-0.2130870819091797,0.36598461866378784
1772467508911646700,5.090646728515625,-0.8121964931488037,-0.16407108306884766,0.47778257727622986
1772467508921652700,5.10065283203125,-0.7947952747344971,-0.009820938110351562,0.5479748845100403
1772467508931658500,5.110658447265625,-0.95989990234375,0.08212471008300781,0.5882300138473511
1772467508951670500,5.13067041015625,-1.1160920858383179,-0.3541069030761719,0.3993532955646515
1772467508961676500,5.140676513671875,-1.111294150352478,-0.6332244873046875,0.40670642256736755
1772467508971682300,5.150682373046875,-1.159338355064392,-0.9641237258911133,0.35924601554870605
1772467508981688300,5.160688232421875,-1.221107006072998,-1.3230047225952148,0.2566026449203491
1772467508991694300,5.1706943359375,-1.229179859161377,-1.681283950805664,0.16578125953674316
1772467509001700000,5.1807001953125,-1.1548279523849487,-1.9912362098693848,0.07646726071834564
1772467509011706000,5.1907060546875,-1.127423644065857,-2.3053998947143555,0.10968619585037231
1772467509021712100,5.200712158203125,-1.0945698022842407,-2.5902490615844727,0.06817980110645294
1772467509031718000,5.2107177734375,-1.114909291267395,-2.7785916328430176,0.037441931664943695
1772467509041724000,5.220723876953125,-1.0125727653503418,-2.9324612617492676,0.030911773443222046
1772467509051730000,5.23072998046875,-0.8541157245635986,-2.999600887298584,0.07094228267669678
1772467509061735700,5.240735595703125,-0.7252602577209473,-2.908722400665283,0.15355516970157623
1772467509071741700,5.25074169921875,-0.6061539649963379,-2.712991714477539,0.1277552843093872
1772467509081747700,5.260747802734375,-0.49011659622192383,-2.5040283203125,0.10974708199501038
1772467509091753700,5.270753662109375,-0.3619401454925537,-2.2726049423217773,0.10587969422340393
1772467509101759500,5.280759521484375,-0.27471208572387695,-2.018622875213623,0.135868102312088
1772467509111765500,5.290765625,-0.21546339988708496,-1.6939163208007812,0.13275253772735596
1772467509121771500,5.300771484375,-0.10846114158630371,-1.4321603775024414,0.08214598149061203
1772467509131777300,5.31077734375,0.045291900634765625,-1.194697380065918,0.10747392475605011
1772467509141783300,5.320783203125,0.1874833106994629,-0.9143257141113281,0.23769378662109375
1772467509151789300,5.330789306640625,0.37130188941955566,-0.624791145324707,0.3108600080013275
1772467509161795000,5.340795166015625,0.5360174179077148,-0.39346790313720703,0.309324711561203
1772467509171801000,5.350801025390625,0.4957451820373535,-0.1439189910888672,0.34963685274124146
1772467509181807000,5.36080712890625,0.34591007232666016,0.009369850158691406,0.33644747734069824
1772467509191812900,5.370812744140625,0.26749181747436523,0.12900161743164062,0.3023034334182739
1772467509201819000,5.38081884765625,0.3179163932800293,0.1958761215209961,0.3473890423774719
1772467509211825000,5.390824951171875,0.463606595993042,0.13843536376953125,0.3135918080806732
1772467509221831000,5.400830810546875,0.6823318004608154,0.09493064880371094,0.2039898782968521
1772467509231836700,5.410836669921875,0.7979831695556641,0.19881820678710938,0.166280597448349
1772467509241842700,5.4208427734375,0.7913284301757812,0.41642093658447266,0.10392497479915619
1772467509251848700,5.4308486328125,0.8014976978302002,0.6327228546142578,-0.06464576721191406
1772467509261854500,5.4408544921875,0.7808828353881836,0.9718542098999023,-0.06634029746055603
1772467509271860500,5.450860595703125,0.6330358982086182,1.405165672302246,-0.00041837291792035103
1772467509281866500,5.460866455078125,0.42832326889038086,1.7705345153808594,-0.06711435317993164
1772467509291872300,5.470872314453125,0.32778334617614746,2.0160655975341797,-0.2615205943584442
1772467509301878300,5.480878173828125,0.23034071922302246,2.146984100341797,-0.3364976942539215
1772467509311884300,5.49088427734375,0.11190319061279297,2.115863800048828,-0.4265017807483673
1772467509321890000,5.50089013671875,0.052724599838256836,1.9520597457885742,-0.6186021566390991
1772467509331896000,5.51089599609375,-0.00039458274841308594,1.8566370010375977,-0.7713380455970764
1772467509341902000,5.520902099609375,0.02347278594970703,1.8439464569091797,-0.8479615449905396
1772467509351908000,5.530908203125,0.10521316528320312,1.9471492767333984,-0.7925020456314087
1772467509361913900,5.540913818359375,0.15929341316223145,2.2565479278564453,-0.566148042678833
1772467509371920000,5.550919921875,0.30603551864624023,2.728440284729004,-0.3417719602584839
1772467509381926000,5.56092578125,0.32752251625061035,3.218536376953125,-0.11041512340307236
1772467509391931600,5.570931640625,0.05321335792541504,3.6882429122924805,0.14010438323020935
1772467509401937700,5.580937744140625,-0.45537590980529785,3.8992185592651367,0.06812290102243423
1772467509411943700,5.590943603515625,-1.1610666513442993,3.594698905944824,-0.30317115783691406
1772467509421949400,5.600949462890625,-1.7209652662277222,2.90543270111084,-0.5644728541374207
1772467509431955500,5.61095556640625,-2.175525188446045,1.718348503112793,-0.949662983417511
1772467509441961500,5.62096142578125,-2.2585031986236572,0.37888526916503906,-1.0921080112457275
1772467509451967500,5.630967529296875,-2.041440010070801,-0.668675422668457,-0.9655297994613647
1772467509461973200,5.64097314453125,-1.7389733791351318,-1.4539871215820312,-0.7850816249847412
1772467509471979300,5.650979248046875,-1.446095585823059,-1.834566593170166,-0.5601241588592529
1772467509481985300,5.6609853515625,-1.0559802055358887,-1.6208572387695312,-0.32960760593414307
1772467509491991000,5.670990966796875,-0.5801913738250732,-0.9155969619750977,-0.06767085194587708
1772467509501997000,5.6809970703125,-0.14272093772888184,-0.18036174774169922,0.08205846697092056
1772467509512003000,5.691003173828125,-0.017362594604492188,0.3781595230102539,0.18573909997940063
1772467509532014800,5.711014892578125,-0.4886770248413086,1.099390983581543,0.3255937397480011
1772467509552026600,5.731026611328125,-0.7297298908233643,0.7651309967041016,0.2194289267063141
1772467509562032600,5.74103271484375,-0.8160874843597412,0.036269187927246094,0.1924087107181549
1772467509572038700,5.75103857421875,-0.9930579662322998,-0.9170331954956055,0.16871309280395508
1772467509582044700,5.761044677734375,-1.075704574584961,-1.8500113487243652,0.1947605311870575
1772467509592050400,5.771050537109375,-0.929450511932373,-2.624579429626465,0.17492049932479858
1772467509602056400,5.781056396484375,-0.8599727153778076,-3.169677734375,0.14744260907173157
1772467509612062500,5.7910625,-0.8874471187591553,-3.5379161834716797,0.04898104816675186
1772467509622068200,5.801068115234375,-0.917748212814331,-3.800751209259033,-0.12728913128376007
1772467509632074200,5.81107421875,-0.9673604965209961,-3.843015193939209,-0.28783267736434937
1772467509642080300,5.821080322265625,-0.8992905616760254,-3.578723907470703,-0.4146667420864105
1772467509652086000,5.8310859375,-0.6700491905212402,-3.204768180847168,-0.4268096089363098
1772467509662092000,5.841092041015625,-0.440981388092041,-2.8126959800720215,-0.38918450474739075
1772467509672098000,5.85109814453125,-0.25322461128234863,-2.364993095397949,-0.3617090880870819
1772467509682103800,5.861103759765625,-0.13444757461547852,-1.9337410926818848,-0.42427998781204224
1772467509692109800,5.87110986328125,-0.12774419784545898,-1.5283422470092773,-0.3798103630542755
1772467509702115800,5.88111572265625,-0.22564697265625,-1.0762853622436523,-0.23177136480808258
1772467509712121900,5.891121826171875,-0.37819623947143555,-0.591069221496582,-0.21924635767936707
1772467509722127600,5.901127685546875,-0.46770191192626953,-0.1295003890991211,-0.24226471781730652
1772467509732133600,5.911133544921875,-0.49483370780944824,0.29428768157958984,-0.27696770429611206
1772467509742139600,5.9211396484375,-0.49849414825439453,0.627985954284668,-0.299216091632843
1772467509752145400,5.9311455078125,-0.44989991188049316,0.8048677444458008,-0.3280518054962158
1772467509762151400,5.9411513671875,-0.26679158210754395,0.8488216400146484,-0.39304569363594055
1772467509772157400,5.951157470703125,0.008602619171142578,0.8983430862426758,-0.3749302625656128
1772467509782163200,5.9611630859375,0.2439098358154297,0.8717079162597656,-0.3502395451068878
1772467509792169200,5.971169189453125,0.3536720275878906,0.7737598419189453,-0.3245489001274109
1772467509802175200,5.98117529296875,0.3997161388397217,0.7624931335449219,-0.36102864146232605
1772467509812181000,5.991180908203125,0.3145408630371094,0.8713827133178711,-0.3413453698158264
1772467509822188000,6.00118798828125,0.19240355491638184,1.0385494232177734,-0.31885623931884766
1772467509832193500,6.011193603515625,0.1379702091217041,1.2305727005004883,-0.3564768135547638
1772467509842199000,6.021198974609375,0.02279043197631836,1.4615068435668945,-0.31082096695899963
1772467509852204500,6.03120458984375,0.005032777786254883,1.6690444946289062,-0.2909390926361084
1772467509862210000,6.0412099609375,0.0045468807220458984,1.881490707397461,-0.25374990701675415
1772467509872215600,6.051215576171875,0.02735280990600586,1.9742307662963867,-0.21352508664131165
1772467509882221300,6.06122119140625,0.07518315315246582,1.9230852127075195,-0.10712267458438873
1772467509892227000,6.07122705078125,0.07195901870727539,1.7664871215820312,-0.03424706310033798
1772467509902232600,6.081232666015625,-0.08288812637329102,1.609903335571289,-0.09029612690210342
1772467509912238300,6.09123828125,-0.3000164031982422,1.4921455383300781,-0.16093307733535767
1772467509922244400,6.101244384765625,-0.29965639114379883,1.3087806701660156,-0.39146560430526733
1772467509932250400,6.11125048828125,-0.09779500961303711,1.2848587036132812,-0.46374744176864624
1772467509942256400,6.12125634765625,0.21479272842407227,1.3720893859863281,-0.3837555944919586
1772467509952262400,6.131262451171875,0.6267797946929932,1.4783449172973633,-0.2039295732975006
1772467509962268400,6.141268310546875,0.9323310852050781,1.6067590713500977,-0.016501236706972122
1772467509972274400,6.1512744140625,1.0306999683380127,1.6554861068725586,0.24912692606449127
1772467509982280700,6.16128076171875,0.9298605918884277,1.5998220443725586,0.6766481399536133
1772467509992287000,6.171286865234375,0.6791646480560303,1.5016803741455078,0.9884549379348755
1772467510002293200,6.181293212890625,0.3022754192352295,1.3231830596923828,1.001451015472412
1772467510012299500,6.191299560546875,-0.24581122398376465,0.9365139007568359,0.652119517326355
1772467510022306300,6.201306396484375,-0.8446784019470215,0.46799278259277344,0.29373589158058167
1772467510032312000,6.21131201171875,-1.269489049911499,-0.051878929138183594,0.09774010628461838
1772467510042317800,6.22131787109375,-1.4089627265930176,-0.4452800750732422,-0.11176997423171997
1772467510052323300,6.2313232421875,-1.2927120923995972,-0.6360883712768555,-0.28803783655166626
1772467510062329000,6.2413291015625,-1.03544282913208,-0.634608268737793,-0.21140331029891968
1772467510072334800,6.2513349609375,-0.7654073238372803,-0.5420083999633789,-0.0637284368276596
1772467510082340600,6.261340576171875,-0.6575736999511719,-0.34953880310058594,0.13767969608306885
1772467510092346000,6.27134619140625,-0.7887415885925293,-0.12404251098632812,0.3238257169723511
1772467510102352000,6.281351806640625,-1.145387053489685,0.06798648834228516,0.4297110438346863
1772467510112358000,6.29135791015625,-1.499586820602417,0.1364727020263672,0.413771390914917
1772467510122363600,6.30136376953125,-1.699605941772461,0.019944190979003906,0.3717164993286133
1772467510132369700,6.31136962890625,-1.7359557151794434,-0.24306201934814453,0.2074548453092575
1772467510142375700,6.321375732421875,-1.737484097480774,-0.5998201370239258,0.1883755326271057
1772467510152381700,6.331381591796875,-1.6026511192321777,-1.1269512176513672,0.1313527524471283
1772467510162387700,6.3413876953125,-1.3691151142120361,-1.752685546875,0.07735395431518555
1772467510172394000,6.35139404296875,-1.1465013027191162,-2.2285752296447754,0.1349814534187317
1772467510182400000,6.36139990234375,-1.001778244972229,-2.5263071060180664,0.3183467984199524
1772467510192406000,6.371406005859375,-0.8006258010864258,-2.6798744201660156,0.3600037097930908
1772467510202412000,6.381412109375,-0.6225695610046387,-2.7331695556640625,0.28378015756607056
1772467510212418300,6.391418212890625,-0.5813617706298828,-2.6962203979492188,0.30088484287261963
1772467510222425000,6.401425048828125,-0.6054031848907471,-2.559565544128418,0.2829475998878479
1772467510232430600,6.4114306640625,-0.527367353439331,-2.3950815200805664,0.1730334311723709
1772467510242436000,6.42143603515625,-0.4094090461730957,-2.193331241607666,0.07627464085817337
1772467510252441600,6.431441650390625,-0.27580809593200684,-1.9829611778259277,0.07917223870754242
1772467510262447000,6.441447021484375,-0.0741724967956543,-1.8069329261779785,0.04809212684631348
1772467510272452600,6.45145263671875,0.18129801750183105,-1.6079177856445312,0.01667271926999092
1772467510282458400,6.461458251953125,0.2986123561859131,-1.3331928253173828,0.06688385456800461
1772467510292464000,6.471464111328125,0.21431708335876465,-1.039778709411621,0.11368202418088913
1772467510302469600,6.4814697265625,0.06582975387573242,-0.7702798843383789,0.017976760864257812
1772467510312475600,6.4914755859375,-0.08670473098754883,-0.4046630859375,0.013476640917360783
1772467510322481400,6.5014814453125,-0.13431692123413086,-0.08623790740966797,0.09625712037086487
1772467510332487400,6.5114873046875,-0.0621342658996582,0.09412097930908203,0.26278814673423767
1772467510342493400,6.521493408203125,0.11143851280212402,0.23677921295166016,0.4038192331790924
1772467510352499500,6.53149951171875,0.3159000873565674,0.3796558380126953,0.4958999752998352
1772467510362505500,6.54150537109375,0.44171142578125,0.6086206436157227,0.4662204384803772
1772467510372511700,6.55151171875,0.4513547420501709,0.8039140701293945,0.3566596210002899
1772467510382517800,6.561517822265625,0.4126923084259033,0.8651266098022461,0.30002108216285706
1772467510392524000,6.57152392578125,0.42635178565979004,0.9931507110595703,0.3774182200431824
1772467510402530300,6.5815302734375,0.5493190288543701,1.2117547988891602,0.36435315012931824
1772467510412536600,6.59153662109375,0.5808050632476807,1.468149185180664,0.36095795035362244
1772467510422542800,6.60154296875,0.506000280380249,1.7481088638305664,0.3012314438819885
1772467510432549000,6.611549072265625,0.3341178894042969,1.9418907165527344,0.18521395325660706
1772467510442555100,6.62155517578125,0.0834956169128418,2.059544563293457,0.04082042723894119
1772467510452561000,6.631560791015625,-0.1652815341949463,2.077610969543457,-0.03248409926891327
1772467510462567000,6.64156689453125,-0.28394317626953125,1.8675832748413086,-0.13988140225410461
1772467510472572700,6.65157275390625,-0.3687291145324707,1.520904541015625,-0.20627173781394958
1772467510482578700,6.66157861328125,-0.1948244571685791,1.2861948013305664,-0.21907103061676025
1772467510492584400,6.67158447265625,0.14889049530029297,1.1003761291503906,-0.3179463744163513
1772467510502590500,6.681590576171875,0.5174694061279297,0.871551513671875,-0.43636998534202576
1772467510512596200,6.69159619140625,0.8318746089935303,0.7472400665283203,-0.4500364363193512
1772467510522602200,6.701602294921875,1.003089189529419,0.8556575775146484,-0.31076887249946594
1772467510532608000,6.71160791015625,0.9834151268005371,1.2679567337036133,-0.26421812176704407
1772467510542614000,6.721614013671875,0.5950140953063965,1.926518440246582,-0.28699275851249695
1772467510552619800,6.731619873046875,-0.1503772735595703,2.5403976440429688,-0.21853192150592804
1772467510562625800,6.741625732421875,-0.7437238693237305,3.139224052429199,0.03881751745939255
1772467510572631600,6.751631591796875,-1.392526388168335,3.1981582641601562,-0.5838671922683716
1772467510582637600,6.761637451171875,-1.7011466026306152,2.6424522399902344,-1.543047308921814
1772467510592643300,6.771643310546875,-1.8930106163024902,1.6928119659423828,-1.589893102645874
1772467510602649300,6.7816494140625,-1.8199089765548706,0.39312076568603516,-1.0604125261306763
1772467510612655000,6.791655029296875,-1.386126160621643,-0.6779909133911133,-0.6209767460823059
1772467510622619400,6.801619384765625,-0.7707962989807129,-1.1160507202148438,-0.4049478769302368
1772467510632587300,6.811587158203125,-0.1418454647064209,-1.0291061401367188,-0.1998893916606903
1772467510642559500,6.8215595703125,0.1662294864654541,-0.5298833847045898,0.08917532861232758
1772467510652537900,6.831537841796875,0.30892443656921387,0.012074470520019531,0.3805862069129944
1772467510662523000,6.84152294921875,0.22527861595153809,0.4243440628051758,0.42463237047195435
1772467510672515000,6.85151513671875,-0.09583759307861328,0.7604255676269531,0.3854559361934662
1772467510682515000,6.861514892578125,-0.43708205223083496,0.8208436965942383,0.3641178607940674
1772467510692522200,6.871522216796875,-0.6966104507446289,0.5882606506347656,0.24073120951652527
1772467510702536700,6.88153662109375,-0.8924499750137329,0.07889080047607422,0.061814069747924805
1772467510722584300,6.901584228515625,-0.9956156015396118,-1.3641233444213867,0.09367376565933228
1772467510732615700,6.91161572265625,-0.927404522895813,-2.1538138389587402,0.09658247232437134
1772467510742650400,6.921650390625,-0.7499078512191772,-2.7312021255493164,0.1116868257522583
1772467510752687000,6.93168701171875,-0.5721538066864014,-3.1687731742858887,0.09100329875946045
1772467510762724600,6.941724609375,-0.49929261207580566,-3.466824531555176,-0.004261523485183716
1772467510772750300,6.951750244140625,-0.5473525524139404,-3.5391197204589844,-0.1854240745306015
1772467510782756400,6.96175634765625,-0.6558902263641357,-3.3808908462524414,-0.3295016288757324
1772467510792762400,6.971762451171875,-0.6446678638458252,-2.9971365928649902,-0.4366799592971802
1772467510802768100,6.98176806640625,-0.48534631729125977,-2.517428398132324,-0.4686492085456848
1772467510812774100,6.991774169921875,-0.2911651134490967,-2.1001534461975098,-0.4487346410751343
1772467510822776300,7.0017763671875,-0.237992525100708,-1.735905647277832,-0.3898019790649414
1772467510842781000,7.021781005859375,-0.39586567878723145,-1.094339370727539,-0.2568020224571228
1772467510852784000,7.0317841796875,-0.43020200729370117,-0.8311605453491211,-0.2505840063095093
1772467510862787800,7.041787841796875,-0.5248069763183594,-0.515289306640625,-0.19983455538749695
1772467510872792300,7.051792236328125,-0.6280020475387573,-0.11315441131591797,-0.21422958374023438
1772467510882797300,7.06179736328125,-0.41851210594177246,0.17888927459716797,-0.27104148268699646
1772467510892803300,7.07180322265625,-0.22527647018432617,0.4324026107788086,-0.24674144387245178
1772467510902809900,7.081809814453125,-0.15790319442749023,0.6235370635986328,-0.1929941028356552
1772467510912817200,7.091817138671875,-0.18819761276245117,0.7861003875732422,-0.23962143063545227
1772467510922825000,7.101824951171875,-0.2120356559753418,0.9348173141479492,-0.30627113580703735
1772467510932833300,7.111833251953125,-0.1726241111755371,1.0650825500488281,-0.3704065680503845
1772467510942841900,7.121841796875,-0.21402764320373535,1.2535333633422852,-0.2747330665588379
1772467510952850700,7.1318505859375,-0.19813776016235352,1.4906501770019531,-0.23876363039016724
1772467510962859800,7.14185986328125,0.06389927864074707,1.6609573364257812,-0.2777135968208313
1772467510972868600,7.15186865234375,0.45598840713500977,1.7730960845947266,-0.2149292528629303
1772467510982875000,7.161875,0.6369345188140869,1.921889305114746,-0.04903271049261093
1772467510992880600,7.171880615234375,0.5210731029510498,2.1263790130615234,-0.04263751581311226
1772467511002886700,7.18188671875,0.20720815658569336,2.3774728775024414,-0.16834527254104614
1772467511012892400,7.191892333984375,-0.009871482849121094,2.4271841049194336,-0.28398385643959045
1772467511022894600,7.20189453125,-0.09798669815063477,2.281085968017578,-0.265571266412735
1772467511052902400,7.23190234375,0.3235769271850586,1.6062049865722656,-0.4201440215110779
1772467511062906000,7.241906005859375,0.4855813980102539,1.6321992874145508,-0.2614066004753113
1772467511072910600,7.25191064453125,0.49265551567077637,1.9439077377319336,0.06910226494073868
1772467511082915800,7.261915771484375,0.4688591957092285,2.416555404663086,0.28620681166648865
1772467511092921600,7.271921630859375,0.2998087406158447,2.858583450317383,0.59846431016922
1772467511102928100,7.28192822265625,-0.10026264190673828,3.064626693725586,0.981656551361084
1772467511112935400,7.291935302734375,-0.60284423828125,2.796682357788086,0.9555702805519104
1772467511122943200,7.301943115234375,-0.9832568168640137,2.075098991394043,0.7096142172813416
1772467511132951600,7.31195166015625,-1.184407114982605,0.9249372482299805,0.3846680521965027
1772467511142960000,7.321960205078125,-1.2176380157470703,-0.31313133239746094,0.2425769865512848
1772467511152969200,7.33196923828125,-1.0314545631408691,-1.108485221862793,0.23091241717338562
1772467511162978000,7.34197802734375,-0.669055700302124,-1.414571762084961,0.21468408405780792
1772467511172987100,7.351987060546875,-0.2584245204925537,-1.3142223358154297,0.2903132438659668
1772467511182993200,7.3619931640625,0.06351923942565918,-0.9283370971679688,0.37664976716041565
1772467511192999000,7.3719990234375,0.1751410961151123,-0.4732046127319336,0.4610790014266968
1772467511203005000,7.3820048828125,-0.008922576904296875,-0.09229564666748047,0.5749579668045044
1772467511213010700,7.3920107421875,-0.3943369388580322,0.057498931884765625,0.5671555399894714
1772467511223012900,7.402012939453125,-0.8595702648162842,0.09703350067138672,0.5815496444702148
1772467511243017700,7.422017822265625,-1.6373062133789062,-0.16417694091796875,0.3575607240200043
1772467511253020700,7.432020751953125,-1.7011573314666748,-0.5015392303466797,0.25545379519462585
1772467511263024400,7.4420244140625,-1.5228005647659302,-0.9606103897094727,0.2667264938354492
1772467511273028900,7.45202880859375,-1.205575704574585,-1.532144546508789,0.3517603576183319
1772467511283034000,7.4620341796875,-0.8624225854873657,-2.0826401710510254,0.5195178985595703
1772467511293039900,7.472039794921875,-0.5338480472564697,-2.541153907775879,0.6373303532600403
1772467511303046700,7.482046630859375,-0.26514410972595215,-2.9037551879882812,0.6543112993240356
1772467511313053700,7.4920537109375,-0.12679600715637207,-3.046748638153076,0.6095291972160339
1772467511323061500,7.5020615234375,-0.14754009246826172,-2.927581310272217,0.5120704174041748
1772467511333069800,7.51206982421875,-0.319047212600708,-2.6659088134765625,0.39633581042289734
1772467511343078700,7.52207861328125,-0.41390323638916016,-2.466917037963867,0.21940982341766357
1772467511353087500,7.53208740234375,-0.36593055725097656,-2.3159947395324707,0.06705018132925034
1772467511363096300,7.542096435546875,-0.25617432594299316,-2.184492588043213,0.04459303244948387
1772467511373105400,7.55210546875,-0.14709138870239258,-1.986341953277588,0.0717574879527092
1772467511383111400,7.562111328125,-0.1105344295501709,-1.7359905242919922,0.058044999837875366
1772467511393117400,7.572117431640625,-0.1477341651916504,-1.3711357116699219,0.041282184422016144
1772467511403123200,7.582123291015625,-0.19803094863891602,-1.0492973327636719,0.04453205317258835
1772467511413129200,7.592129150390625,-0.18548297882080078,-0.8848886489868164,0.04314407706260681
1772467511423131400,7.60213134765625,-0.13769793510437012,-0.7918281555175781,0.14169231057167053
1772467511443136000,7.622135986328125,-0.04320120811462402,-0.6383981704711914,0.354408860206604
1772467511453139200,7.63213916015625,-0.027604103088378906,-0.4783000946044922,0.4631563127040863
1772467511463143000,7.642142822265625,-0.017235755920410156,-0.24207115173339844,0.4474005699157715
1772467511473147100,7.652147216796875,-0.002426624298095703,-0.04933738708496094,0.36461716890335083
1772467511483152400,7.66215234375,0.022096872329711914,0.12854385375976562,0.38169628381729126
1772467511493158400,7.672158447265625,0.09431862831115723,0.4588308334350586,0.45993050932884216
1772467511503165000,7.6821650390625,0.2142162322998047,0.9029092788696289,0.47531965374946594
1772467511513172200,7.692172119140625,0.2821784019470215,1.3552169799804688,0.41452449560165405
1772467511523180000,7.702179931640625,0.2651081085205078,1.8013648986816406,0.3072262406349182
1772467511533188400,7.712188232421875,0.08526420593261719,2.146206855773926,0.28241539001464844
1772467511543197000,7.722197021484375,-0.13002657890319824,2.400053024291992,0.27808135747909546
1772467511553205800,7.732205810546875,-0.2917671203613281,2.573136329650879,0.1455969512462616
1772467511563214600,7.742214599609375,-0.32917356491088867,2.6467275619506836,-0.025292567908763885
1772467511573223700,7.7522236328125,-0.24193334579467773,2.6066064834594727,-0.15875524282455444
1772467511583229700,7.762229736328125,0.014784097671508789,2.3999929428100586,-0.20299836993217468
1772467511593235700,7.772235595703125,0.4391653537750244,2.035999298095703,-0.345747709274292
1772467511603241500,7.782241455078125,0.8188166618347168,1.6431913375854492,-0.5077311992645264
1772467511613247500,7.79224755859375,0.9250495433807373,1.4603242874145508,-0.36415326595306396
1772467511623249400,7.80224951171875,0.9140768051147461,1.6307010650634766,-0.1966947317123413
1772467511643254300,7.822254150390625,0.5224487781524658,2.6185379028320312,0.1829388439655304
1772467511653257200,7.83225732421875,0.1268165111541748,3.1153860092163086,0.27795758843421936
1772467511663261200,7.84226123046875,-0.39161014556884766,3.338695526123047,0.2596227824687958
1772467511673265400,7.852265380859375,-0.846015214920044,2.9165258407592773,0.09898917376995087
1772467511683270700,7.862270751953125,-1.2548167705535889,2.1272687911987305,-0.37950873374938965
1772467511693276400,7.8722763671875,-1.774773359298706,0.9823150634765625,-0.8847239017486572
1772467511703283200,7.882283203125,-2.026601552963257,-0.20146751403808594,-0.7920067310333252
1772467511713290500,7.89229052734375,-1.7398967742919922,-1.108414649963379,-0.47236689925193787
1772467511723298300,7.90229833984375,-1.1534647941589355,-1.6630487442016602,-0.31659817695617676
1772467511733306400,7.912306396484375,-0.55074143409729,-1.6331100463867188,-0.17451363801956177
1772467511743315200,7.922315185546875,-0.012958765029907227,-1.1693124771118164,0.03889596462249756
1772467511753324000,7.932323974609375,0.24407267570495605,-0.5173416137695312,0.2423585057258606
1772467511763332900,7.942332763671875,0.2939906120300293,0.11175155639648438,0.41084983944892883
1772467511773342000,7.952342041015625,0.06014609336853027,0.49842071533203125,0.4079582989215851
1772467511783348000,7.962347900390625,-0.24386930465698242,0.5721216201782227,0.33033785223960876
1772467511793353700,7.972353759765625,-0.5341835021972656,0.4774961471557617,0.28867411613464355
1772467511803359700,7.98235986328125,-0.7854496240615845,0.17284679412841797,0.19606991112232208
1772467511813365500,7.992365478515625,-0.9809473752975464,-0.3167896270751953,0.1460541933774948
1772467511823371500,8.00237158203125,-0.9790033102035522,-1.0335311889648438,0.16568759083747864
1772467511833377300,8.012377197265625,-0.8418080806732178,-1.8002004623413086,0.34083759784698486
1772467511843383300,8.02238330078125,-0.5825283527374268,-2.430813789367676,0.3759669363498688
1772467511853389000,8.03238916015625,-0.20290493965148926,-3.0460095405578613,0.3000945448875427
1772467511863395000,8.04239501953125,0.10375308990478516,-3.4746103286743164,0.19874858856201172
1772467511873400800,8.05240087890625,0.24788975715637207,-3.6313438415527344,0.03740788996219635
1772467511883406800,8.06240673828125,0.11450648307800293,-3.5930566787719727,-0.13306133449077606
1772467511893412600,8.07241259765625,-0.09256362915039062,-3.4360132217407227,-0.2819216251373291
1772467511903418600,8.082418701171875,-0.2558143138885498,-3.112165927886963,-0.377744197845459
1772467511913424400,8.09242431640625,-0.28556346893310547,-2.7220067977905273,-0.3767060339450836
1772467511923430400,8.102430419921875,-0.23781895637512207,-2.2852587699890137,-0.3534124493598938
1772467511933436200,8.112436279296874,-0.22604966163635254,-1.802408218383789,-0.22460095584392548
1772467511943442200,8.122442138671875,-0.3272874355316162,-1.330698013305664,-0.18141727149486542
1772467511953448000,8.132447998046874,-0.43764543533325195,-0.9222421646118164,-0.2726023495197296
1772467511963454000,8.142453857421875,-0.4819002151489258,-0.6864385604858398,-0.3018476366996765
1772467511973459700,8.152459716796875,-0.39835143089294434,-0.5750541687011719,-0.3639953136444092
1772467511983465700,8.1624658203125,-0.18670868873596191,-0.45418357849121094,-0.36418551206588745
1772467511993471500,8.172471435546875,-0.06667304039001465,-0.28094482421875,-0.3172016143798828
1772467512003477500,8.1824775390625,-0.02965688705444336,-0.055182456970214844,-0.3810232877731323
1772467512013483300,8.192483154296875,-0.10542011260986328,0.30446529388427734,-0.4977595806121826
1772467512023489300,8.2024892578125,-0.25639045238494873,0.5876836776733398,-0.6608244180679321
1772467512033495000,8.2124951171875,-0.3451964855194092,0.8570575714111328,-0.7317142486572266
1772467512043501000,8.2225009765625,-0.3057248592376709,1.0124378204345703,-0.7533423900604248
1772467512053506800,8.2325068359375,-0.04659390449523926,1.2019729614257812,-0.6697226762771606
1772467512063512800,8.242512939453125,0.16549277305603027,1.401383399963379,-0.4806375503540039
1772467512073518600,8.2525185546875,0.29302406311035156,1.5197486877441406,-0.31899505853652954
1772467512083524600,8.262524658203125,0.3757197856903076,1.6525020599365234,-0.1751931607723236
1772467512093530400,8.2725302734375,0.4853494167327881,1.8760366439819336,-0.005881376564502716
1772467512103536400,8.282536376953125,0.5258519649505615,2.04697322845459,0.10093790292739868
1772467512113542100,8.292542236328124,0.40178537368774414,2.2371320724487305,0.18740583956241608
1772467512123548200,8.302548095703125,0.3337585926055908,2.3078393936157227,0.1581723839044571
1772467512133554000,8.312553955078124,0.29496002197265625,2.2541379928588867,0.1659403145313263
1772467512143559700,8.3225595703125,0.2765390872955322,2.1000280380249023,0.07171477377414703
1772467512153565700,8.332565673828125,0.3941957950592041,1.9314708709716797,-0.14080233871936798
1772467512163571500,8.342571533203126,0.5769438743591309,1.8246707916259766,-0.13751821219921112
1772467512173577500,8.352577392578125,0.7771868705749512,1.8175992965698242,0.03774723410606384
1772467512183583200,8.362583251953126,0.9096777439117432,1.91937255859375,0.13129837810993195
1772467512193589200,8.37258935546875,0.8566193580627441,2.138888359069824,0.3368343710899353
1772467512203595000,8.382594970703124,0.5471267700195312,2.3467512130737305,0.6776221990585327
1772467512213601000,8.39260107421875,0.09073209762573242,2.4189796447753906,1.0044806003570557
1772467512223606800,8.402606689453124,-0.3748326301574707,2.3609533309936523,1.1563695669174194
1772467512233612800,8.41261279296875,-0.7411205768585205,2.006193161010742,1.0764496326446533
1772467512243618600,8.42261865234375,-0.8947827816009521,1.355743408203125,0.8546220064163208
1772467512253624600,8.43262451171875,-0.8359041213989258,0.5345020294189453,0.5885261297225952
1772467512263630300,8.44263037109375,-0.6413493156433105,-0.21820926666259766,0.3837844729423523
1772467512273636400,8.45263623046875,-0.4642602205276489,-0.6302738189697266,0.309761643409729
1772467512283642000,8.46264208984375,-0.45915400981903076,-0.6639242172241211,0.3090433180332184
1772467512293648100,8.472648193359374,-0.5225217342376709,-0.5298032760620117,0.2324422001838684
1772467512303654000,8.48265380859375,-0.5213608741760254,-0.23767566680908203,0.2084141969680786
1772467512313660000,8.492659912109374,-0.5742746591567993,-0.003162384033203125,0.3450813293457031
1772467512323665700,8.502665771484375,-0.7289602756500244,0.09741592407226562,0.516322910785675
1772467512333671700,8.512671630859375,-0.990693211555481,0.1361675262451172,0.5898306965827942
1772467512343677400,8.522677490234376,-1.1652445793151855,0.08020973205566406,0.4268873333930969
1772467512353683500,8.532683349609375,-1.1868776082992554,-0.1846475601196289,0.2650836110115051
1772467512363689500,8.542689453125,-1.0695953369140625,-0.6389379501342773,0.2805386185646057
1772467512373695200,8.5526953125,-0.8415937423706055,-1.201162338256836,0.3529384732246399
1772467512383701200,8.562701171875,-0.5919411182403564,-1.771148681640625,0.24189655482769012
1772467512393707300,8.572707275390625,-0.42943859100341797,-2.3204426765441895,0.17635878920555115
1772467512403713000,8.582713134765624,-0.3537635803222656,-2.791802406311035,0.2566608786582947
1772467512413719000,8.592718994140625,-0.2451385259628296,-3.1185965538024902,0.2970837652683258
1772467512423725000,8.60272509765625,-0.06479334831237793,-3.16758394241333,0.2644176483154297
1772467512433731000,8.61273095703125,0.024698734283447266,-2.9681239128112793,0.12102226912975311
1772467512443736800,8.62273681640625,0.07155513763427734,-2.6116390228271484,0.07279250025749207
1772467512453742800,8.632742919921874,0.09536314010620117,-2.3278985023498535,0.03472985327243805
1772467512463748900,8.642748779296875,0.12401294708251953,-2.135673999786377,0.05090557038784027
1772467512473754600,8.652754638671874,0.24373316764831543,-2.025228977203369,-0.008518427610397339
1772467512483760600,8.6627607421875,0.2534809112548828,-1.8243560791015625,0.028232336044311523
1772467512493766700,8.6727666015625,0.16222810745239258,-1.547469139099121,0.1436156928539276
1772467512503772400,8.6827724609375,0.09387588500976562,-1.3618545532226562,0.19550512731075287
1772467512513778400,8.6927783203125,0.10115361213684082,-1.2386493682861328,0.18286225199699402
1772467512523784400,8.702784423828126,0.010829448699951172,-0.9672737121582031,0.23400840163230896
1772467512533790200,8.712790283203125,-0.05358552932739258,-0.7341899871826172,0.22042366862297058
1772467512543796200,8.722796142578124,0.004664421081542969,-0.6589765548706055,0.19931244850158691
1772467512553802200,8.73280224609375,0.06651067733764648,-0.6553974151611328,0.3043750524520874
1772467512563808300,8.742808349609374,0.08467268943786621,-0.7138233184814453,0.3921351432800293
1772467512573814000,8.75281396484375,0.10774636268615723,-0.6765966415405273,0.3654666543006897
1772467512583820000,8.762820068359375,0.030902862548828125,-0.5869913101196289,0.24312227964401245
1772467512593826000,8.772825927734376,-0.07935643196105957,-0.3781280517578125,0.24014230072498322
1772467512603831800,8.782831787109375,-0.10958051681518555,-0.045223236083984375,0.3216704726219177
1772467512613837800,8.792837890625,-0.08939623832702637,0.4450387954711914,0.2856968641281128
1772467512623843800,8.80284375,-0.07634472846984863,1.077958106994629,0.25725752115249634
1772467512633849600,8.812849609375,-0.037088871002197266,1.6860103607177734,0.25218403339385986
1772467512643855600,8.822855712890625,0.014564990997314453,2.2739009857177734,0.2903065085411072
1772467512653861600,8.832861572265625,0.025620222091674805,2.7175941467285156,0.33407193422317505
1772467512663867400,8.842867431640625,-0.061121225357055664,3.0174665451049805,0.29255443811416626
1772467512673873400,8.852873291015625,-0.17956161499023438,3.0881547927856445,0.27655673027038574
1772467512683879400,8.86287939453125,-0.20636606216430664,2.9639196395874023,0.2055824100971222
1772467512693885400,8.872885498046875,-0.06949663162231445,2.635610580444336,0.1400003731250763
1772467512703891200,8.88289111328125,0.16042065620422363,2.227616310119629,0.1026977151632309
1772467512713897200,8.892897216796875,0.5528700351715088,1.8015336990356445,0.05914203077554703
1772467512723903000,8.902903076171874,0.9049057960510254,1.4235315322875977,0.08965887874364853
1772467512733909000,8.912908935546875,1.3009815216064453,1.297999382019043,0.12802466750144958
1772467512743914800,8.922914794921875,1.624518871307373,1.418675422668457,0.1510886400938034
1772467512753920800,8.932920654296876,1.6854581832885742,1.8324251174926758,0.23628301918506622
1772467512763926500,8.942926513671875,1.2298905849456787,2.333465576171875,0.3043496310710907
1772467512773932500,8.9529326171875,0.4364278316497803,2.798506736755371,0.21391646564006805
1772467512783938300,8.962938232421875,-0.3778564929962158,2.860884666442871,-0.03949124738574028
1772467512803950000,8.9829501953125,-1.7037739753723145,1.6180219650268555,-0.714371919631958
1772467512813956000,8.9929560546875,-1.8950461149215698,0.5213632583618164,-0.9484859704971313
1772467512823961900,9.0029619140625,-1.6800668239593506,-0.5999069213867188,-0.9921643137931824
1772467512833967900,9.0129677734375,-1.206252932548523,-1.4070262908935547,-0.8132855892181396
1772467512843973600,9.0229736328125,-0.6910885572433472,-1.7199821472167969,-0.546034038066864
1772467512853979600,9.032979736328125,-0.10212421417236328,-1.5314111709594727,-0.18925975263118744
1772467512863985400,9.0429853515625,0.43670177459716797,-0.8821306228637695,0.16234944760799408
1772467512873991400,9.052991455078125,0.6868786811828613,0.08682060241699219,0.4725795090198517
1772467512883997200,9.0629970703125,0.563671350479126,1.0257549285888672,0.7470717430114746
1772467512894003200,9.073003173828125,-0.025565624237060547,1.5247163772583008,0.7108727693557739
1772467512904009000,9.083009033203124,-0.6927112340927124,1.3855152130126953,0.37251272797584534
1772467512914015000,9.093014892578125,-1.1326395273208618,0.8644037246704102,0.15067578852176666
1772467512924020700,9.103020751953125,-1.3315680027008057,0.09250068664550781,0.0626593828201294
1772467512934026800,9.11302685546875,-1.2690719366073608,-0.8572320938110352,0.033838361501693726
1772467512944032500,9.123032470703125,-0.9983698129653931,-1.798110008239746,0.12920008599758148
1772467512954038500,9.13303857421875,-0.6856483221054077,-2.5490646362304688,0.22375991940498352
1772467512964044300,9.143044189453125,-0.46782052516937256,-3.0202908515930176,0.22838257253170013
1772467512974050300,9.15305029296875,-0.3532980680465698,-3.3082518577575684,0.15769554674625397
1772467512984056000,9.16305615234375,-0.34649336338043213,-3.475518226623535,0.0014974027872085571
1772467512994062000,9.17306201171875,-0.3466240167617798,-3.5510921478271484,-0.13575297594070435
1772467513004067800,9.18306787109375,-0.37796080112457275,-3.53033447265625,-0.29751700162887573
1772467513014073900,9.193073974609375,-0.4702770709991455,-3.437088966369629,-0.34126603603363037
1772467513024079600,9.20307958984375,-0.5146484375,-3.15665864944458,-0.3631576597690582
1772467513034085600,9.213085693359375,-0.40498411655426025,-2.8378467559814453,-0.4440292418003082
1772467513044091400,9.22309130859375,-0.20665335655212402,-2.4477643966674805,-0.39138585329055786
1772467513054097400,9.233097412109375,-0.018422365188598633,-1.9822564125061035,-0.26559606194496155
1772467513064103200,9.243103271484374,0.08449077606201172,-1.5564403533935547,-0.22336256504058838
1772467513074109200,9.253109130859375,0.12629032135009766,-1.2180042266845703,-0.19300246238708496
1772467513084115000,9.263114990234374,0.09257793426513672,-0.9810218811035156,-0.2025095820426941
1772467513094121000,9.273120849609375,0.015463113784790039,-0.8257808685302734,-0.1804441213607788
1772467513104126700,9.283126708984375,-0.0015208721160888672,-0.5558528900146484,-0.12717750668525696
1772467513114132700,9.2931328125,0.11258578300476074,-0.3003396987915039,-0.16776332259178162
1772467513124138500,9.303138427734375,0.3056364059448242,-0.04503440856933594,-0.10581488907337189
1772467513134144500,9.31314453125,0.4447765350341797,0.17638397216796875,-0.11795058846473694
1772467513144150300,9.323150390625,0.5068581104278564,0.35910606384277344,-0.22788822650909424
1772467513154156300,9.33315625,0.5160791873931885,0.5462121963500977,-0.29773712158203125
1772467513164162000,9.343162109375,0.553992748260498,0.6851186752319336,-0.2900013029575348
1772467513174167800,9.353167724609374,0.5826153755187988,0.8905200958251953,-0.320107102394104
1772467513184173800,9.363173828125,0.4769785404205322,1.1433391571044922,-0.37943655252456665
1772467513194179600,9.3731796875,0.317610502243042,1.424591064453125,-0.4213852882385254
1772467513204185600,9.383185546875,0.16063165664672852,1.7488441467285156,-0.37029701471328735
1772467513214191400,9.39319140625,0.1494131088256836,2.034769058227539,-0.40357789397239685
1772467513224197400,9.403197265625,0.2764623165130615,2.2532167434692383,-0.39678630232810974
1772467513234203100,9.413203125,0.28075551986694336,2.408632278442383,-0.2968656122684479
1772467513244209200,9.423209228515624,0.13424468040466309,2.4389963150024414,-0.22242769598960876
1772467513254215000,9.43321484375,0.00000476837158203125,2.387523651123047,-0.28374597430229187
1772467513264221000,9.443220947265624,-0.09852004051208496,2.1971864700317383,-0.3861563503742218
1772467513274226700,9.453226806640625,-0.19536805152893066,1.8684453964233398,-0.43970221281051636
1772467513284232700,9.463232666015625,-0.23354697227478027,1.5020265579223633,-0.4883844256401062
1772467513294238500,9.473238525390625,-0.12775611877441406,1.231903076171875,-0.4133617877960205
1772467513304244500,9.483244384765625,0.03545117378234863,1.1438817977905273,-0.295149028301239
1772467513314250200,9.493250244140626,0.38672709465026855,1.351710319519043,-0.13814358413219452
1772467513324256300,9.50325634765625,0.6662745475769043,1.6579961776733398,0.14593961834907532
1772467513334262000,9.513261962890626,0.5320158004760742,1.9761066436767578,0.5610141754150391
1772467513344268000,9.52326806640625,0.13204264640808105,2.1486053466796875,1.0021518468856812
1772467513354273800,9.533273681640624,-0.4164235591888428,2.190876007080078,0.9927022457122803
1772467513364279800,9.54327978515625,-0.8145458698272705,2.118175506591797,0.7435494661331177
1772467513374285600,9.55328564453125,-0.8241689205169678,1.524907112121582,0.13748891651630402
1772467513384291600,9.56329150390625,-0.712997317314148,0.6271848678588867,-0.17546992003917694
1772467513394297300,9.57329736328125,-0.5875179767608643,-0.03421497344970703,-0.2565319538116455
1772467513404303400,9.583303466796876,-0.3335345983505249,-0.2544097900390625,-0.24139989912509918
1772467513414309000,9.59330908203125,0.07219696044921875,-0.19206905364990234,-0.2246309518814087
1772467513424315100,9.603315185546874,0.32503581047058105,0.046688079833984375,-0.03719580918550491
1772467513434321000,9.61332080078125,0.22464585304260254,0.36113739013671875,0.08432932198047638
1772467513444327000,9.623326904296874,-0.004015445709228516,0.5171413421630859,0.06058068573474884
1772467513454332700,9.633332763671875,-0.3383007049560547,0.44856834411621094,0.07387940585613251
1772467513464338700,9.643338623046875,-0.7083731889724731,0.2615041732788086,0.16779230535030365
1772467513474344400,9.653344482421875,-0.9876629114151001,-0.03846263885498047,0.09779004752635956
1772467513484350500,9.6633505859375,-1.0963430404663086,-0.44127750396728516,-0.06703934073448181
1772467513514368000,9.693367919921876,-0.972432017326355,-1.7365570068359375,-0.05788054317235947
1772467513524374000,9.7033740234375,-0.8939628601074219,-2.050105571746826,0.0290985107421875
1772467513534379800,9.7133798828125,-0.6784056425094604,-2.3482937812805176,0.05076579377055168
1772467513544385800,9.7233857421875,-0.43358027935028076,-2.6698732376098633,0.06945954263210297
1772467513554391600,9.7333916015625,-0.32549166679382324,-2.9147443771362305,0.1430841088294983
1772467513564397600,9.7433974609375,-0.22910964488983154,-3.025886058807373,0.18654856085777283
1772467513574403300,9.7534033203125,-0.04796576499938965,-3.0372586250305176,0.22456377744674683
1772467513584409300,9.763409423828126,0.11305356025695801,-2.9826321601867676,0.3009837567806244
1772467513594415000,9.7734150390625,0.0952460765838623,-2.8093786239624023,0.3166216015815735
1772467513604421000,9.783421142578124,0.006236076354980469,-2.5506582260131836,0.15633812546730042
1772467513614427000,9.793427001953125,-0.0606379508972168,-2.263505458831787,0.014893211424350739
1772467513624433000,9.803432861328124,-0.08744144439697266,-2.0002999305725098,0.006655629724264145
1772467513634438700,9.813438720703125,0.05439281463623047,-1.7035980224609375,0.08904336392879486
1772467513644444700,9.823444580078124,0.23203349113464355,-1.3689861297607422,0.20955845713615417
1772467513654450400,9.833450439453125,0.3215219974517822,-1.0491609573364258,0.27361488342285156
1772467513664456200,9.843456298828125,0.25133228302001953,-0.6915168762207031,0.3921926021575928
1772467513674462200,9.853462158203126,0.21260571479797363,-0.4250373840332031,0.4414084553718567
1772467513684468000,9.863468017578125,0.24428701400756836,-0.2544403076171875,0.4834323525428772
1772467513694474000,9.873473876953126,0.19844508171081543,-0.11745262145996094,0.5565274357795715
1772467513704479700,9.883479736328125,0.20463991165161133,-0.04273700714111328,0.5353676080703735
1772467513714485800,9.89348583984375,0.23082709312438965,0.06505393981933594,0.5001721382141113
1772467513724491500,9.903491455078125,0.33592963218688965,0.17681217193603516,0.5091036558151245
1772467513734497500,9.91349755859375,0.42484331130981445,0.3974618911743164,0.4995466470718384
1772467513744503300,9.92350341796875,0.4930088520050049,0.7171192169189453,0.3838857114315033
1772467513754509300,9.93350927734375,0.5644404888153076,1.0829782485961914,0.30143800377845764
1772467513764515000,9.94351513671875,0.5429019927978516,1.4043340682983398,0.26266545057296753
1772467513774521000,9.95352099609375,0.33673572540283203,1.7340946197509766,0.20010635256767273
1772467513784526800,9.96352685546875,0.2568783760070801,2.0149288177490234,0.07128049433231354
1772467513794532900,9.973532958984375,0.19755291938781738,2.213624954223633,0.053947269916534424
1772467513804538600,9.98353857421875,0.07697606086730957,2.3496179580688477,0.004483699798583984
1772467513814544600,9.993544677734375,0.02863478660583496,2.327617645263672,-0.11621281504631042
1772467513824550400,10.00355029296875,-0.04365372657775879,2.0907812118530273,-0.2186039835214615
1772467513834556400,10.013556396484375,-0.11117887496948242,1.7733430862426758,-0.26662904024124146
1772467513844562200,10.023562255859375,-0.09802532196044922,1.5666522979736328,-0.28928709030151367
1772467513854568200,10.033568115234376,0.028707265853881836,1.4561662673950195,-0.39185792207717896
1772467513864574000,10.043573974609375,0.2156972885131836,1.6184377670288086,-0.4230883717536926
1772467513874580000,10.053580078125,0.4443531036376953,2.004911422729492,-0.3193665146827698
1772467513884585700,10.063585693359375,0.5437588691711426,2.4906673431396484,-0.1729896366596222
1772467513894591700,10.073591796875,0.24223828315734863,2.9464893341064453,-0.04837067425251007
1772467513904597500,10.083597412109375,-0.2643357515335083,3.30582332611084,-0.010044559836387634
1772467513914603500,10.093603515625,-0.7616924047470093,3.2586727142333984,-0.25954264402389526
1772467513924609300,10.103609375,-1.2894303798675537,2.748981475830078,-0.6264899969100952
1772467513944621000,10.12362109375,-1.360452651977539,0.5725326538085938,-1.0917781591415405
1772467513954627000,10.133626953125,-0.8463928699493408,-0.4720592498779297,-1.0018476247787476
1772467513964632800,10.1436328125,-0.3581383228302002,-1.1557693481445312,-0.9439253807067871
1772467513974638800,10.153638916015625,0.039418935775756836,-1.2935819625854492,-0.7986875772476196
1772467513984644600,10.16364453125,0.41518378257751465,-1.0686779022216797,-0.5792984366416931
1772467513994650600,10.173650634765625,0.6373379230499268,-0.4679555892944336,-0.27269747853279114
1772467514004656600,10.18365673828125,0.6885344982147217,0.3163299560546875,-0.04097408801317215
1772467514014662400,10.193662353515625,0.5090911388397217,0.8294992446899414,-0.015720494091510773
1772467514024668400,10.20366845703125,0.1423642635345459,1.1009092330932617,0.03357657790184021
1772467514034674400,10.21367431640625,-0.1495516300201416,0.9785394668579102,0.04213344678282738
1772467514044680200,10.22368017578125,-0.479728102684021,0.44014644622802734,-0.09132882952690125
1772467514064692200,10.243692138671875,-0.9699779748916626,-1.1707487106323242,-0.2568869888782501
1772467514074698000,10.253697998046874,-0.9719225168228149,-2.045750617980957,-0.18674615025520325
1772467514084704000,10.2637041015625,-0.718268632888794,-2.7556495666503906,-0.08758819103240967
1772467514094710000,10.2737099609375,-0.42268073558807373,-3.3394722938537598,-0.21681413054466248
1772467514104715800,10.2837158203125,-0.2712208032608032,-3.7116127014160156,-0.3172415494918823
1772467514114721800,10.2937216796875,-0.2256765365600586,-3.9585065841674805,-0.38405677676200867
1772467514124727800,10.303727783203126,-0.21575844287872314,-4.108800411224365,-0.4757389724254608
1772467514134733800,10.31373388671875,-0.2042785882949829,-4.109981060028076,-0.5160918831825256
1772467514144739600,10.323739501953124,-0.08746027946472168,-3.919200897216797,-0.6095781922340393
1772467514154745600,10.33374560546875,0.1055527925491333,-3.584658622741699,-0.66590416431427
1772467514164751600,10.343751708984374,0.21759283542633057,-3.140286922454834,-0.574394702911377
1772467514174757400,10.35375732421875,0.23561668395996094,-2.6009321212768555,-0.5198461413383484
1772467514184763400,10.363763427734375,0.21911227703094482,-2.010227680206299,-0.4625394940376282
1772467514194769400,10.373769287109376,0.13102352619171143,-1.4163122177124023,-0.3868487477302551
1772467514204775200,10.383775146484375,-0.06779050827026367,-0.8094511032104492,-0.3350345492362976
1772467514214781200,10.39378125,-0.3261953592300415,-0.2943897247314453,-0.40892675518989563
1772467514224787200,10.403787109375,-0.38037049770355225,0.12417030334472656,-0.41827303171157837
1772467514234793200,10.413793212890624,-0.3397637605667114,0.33643150329589844,-0.33911824226379395
1772467514244799000,10.423799072265625,-0.3520498275756836,0.4574155807495117,-0.25706177949905396
1772467514254805000,10.433804931640625,-0.28685927391052246,0.5731067657470703,-0.25941967964172363
1772467514274816800,10.453816650390625,-0.27197325229644775,0.49731922149658203,-0.2405330240726471
1772467514284822500,10.463822509765626,-0.34335994720458984,0.579071044921875,-0.22526299953460693
1772467514294828500,10.47382861328125,-0.3303264379501343,0.7517557144165039,-0.2957003712654114
1772467514304834300,10.483834228515626,-0.1708582639694214,0.9196033477783203,-0.34228086471557617
1772467514314840300,10.49384033203125,0.05979418754577637,1.0870943069458008,-0.36077266931533813
1772467514324846000,10.50384619140625,0.21429920196533203,1.320908546447754,-0.3802454173564911
1772467514334852000,10.51385205078125,0.25413942337036133,1.6830720901489258,-0.3865474462509155
1772467514344857900,10.52385791015625,0.2508561611175537,2.0491533279418945,-0.39377227425575256
1772467514354863900,10.53386376953125,0.2953035831451416,2.2567386627197266,-0.4541960656642914
1772467514364869600,10.54386962890625,0.32149767875671387,2.229583740234375,-0.46759048104286194
1772467514374875600,10.553875732421876,0.4311065673828125,2.087397575378418,-0.3912009000778198
1772467514384881400,10.56388134765625,0.7027842998504639,1.8251543045043945,-0.43113812804222107
1772467514394887400,10.573887451171874,0.8035047054290771,1.6242761611938477,-0.4584149122238159
1772467514404893200,10.58389306640625,0.690608024597168,1.3986549377441406,-0.4968007206916809
1772467514414899200,10.593899169921874,0.38067197799682617,1.5072546005249023,-0.35051876306533813
1772467514424905000,10.603905029296875,0.10373473167419434,1.9215497970581055,-0.1725730448961258
1772467514434911000,10.613910888671874,0.006246328353881836,2.3831682205200195,0.06210938096046448
1772467514444916700,10.623916748046875,-0.043631911277770996,2.7195358276367188,0.3511486053466797
1772467514454922500,10.633922607421875,-0.23036134243011475,2.7586050033569336,0.7110600471496582
1772467514464928500,10.643928466796876,-0.3457450866699219,2.4003162384033203,0.6366162300109863
1772467514474934300,10.653934326171875,-0.4686596393585205,1.5974178314208984,0.2982684373855591
1772467514484940300,10.663940185546876,-0.5910309553146362,0.5949649810791016,0.12671588361263275
1772467514494946000,10.673946044921875,-0.48617231845855713,-0.16658401489257812,-0.06446295231580734
1772467514504952000,10.6839521484375,-0.3609102964401245,-0.477508544921875,-0.22989436984062195
1772467514514957800,10.693957763671875,-0.2884190082550049,-0.30997562408447266,-0.10137733817100525
1772467514524963800,10.7039638671875,-0.1886119842529297,0.19655609130859375,0.021599125117063522
1772467514534969600,10.713969482421875,-0.2387939691543579,0.7929754257202148,-0.002276316285133362
1772467514544975600,10.7239755859375,-0.530351996421814,1.1735553741455078,0.116950623691082
1772467514554981400,10.7339814453125,-0.8681775331497192,1.1957674026489258,0.19053904712200165
1772467514564987400,10.7439873046875,-1.240105152130127,1.028061866760254,0.2702628970146179
1772467514574993200,10.7539931640625,-1.5381667613983154,0.8240823745727539,0.32266274094581604
1772467514584999200,10.763999267578125,-1.5235328674316406,0.4405679702758789,0.2621523141860962
1772467514595005000,10.7740048828125,-1.3049895763397217,-0.10803413391113281,0.25975361466407776
1772467514605011000,10.784010986328125,-0.9806588888168335,-0.6307277679443359,0.24275393784046173
1772467514615016700,10.7940166015625,-0.6727118492126465,-1.199625015258789,0.24412190914154053
1772467514625022700,10.804022705078125,-0.3980289697647095,-1.8006744384765625,0.3588816523551941
1772467514635028500,10.814028564453125,-0.2650409936904907,-2.2573189735412598,0.3817794919013977
1772467514645034500,10.824034423828126,-0.22012817859649658,-2.5748424530029297,0.3232266902923584
1772467514655040300,10.834040283203125,-0.12446081638336182,-2.820486068725586,0.3409785032272339
1772467514665046300,10.84404638671875,-0.08752870559692383,-2.8990097045898438,0.392831027507782
1772467514675052000,10.854052001953125,-0.08603119850158691,-2.8871307373046875,0.3073456883430481
1772467514685058000,10.86405810546875,0.06183826923370361,-2.8137741088867188,0.20894058048725128
1772467514695063800,10.874063720703125,0.29973065853118896,-2.798752784729004,0.1787223517894745
1772467514705069800,10.88406982421875,0.3501744270324707,-2.6794843673706055,0.29849445819854736
1772467514715075600,10.89407568359375,0.2215510606765747,-2.5036959648132324,0.25854817032814026
1772467514725081600,10.90408154296875,0.0652310848236084,-2.30458402633667,0.1344013810157776
1772467514735087400,10.91408740234375,-0.04953765869140625,-2.148616313934326,0.12640349566936493
1772467514745093400,10.92409326171875,-0.0860832929611206,-2.0211052894592285,0.13861826062202454
1772467514755099100,10.93409912109375,-0.13199281692504883,-1.773660659790039,0.14216424524784088
1772467514765105200,10.944105224609375,-0.1153937578201294,-1.4782781600952148,0.15630827844142914
1772467514775111000,10.95411083984375,-0.09754669666290283,-1.2116804122924805,0.21474656462669373
1772467514785117000,10.964116943359375,-0.16517150402069092,-0.9020166397094727,0.30328139662742615
1772467514795122700,10.974122802734374,-0.14233601093292236,-0.5826301574707031,0.3260170817375183
1772467514805128700,10.984128662109375,0.15806245803833008,-0.3396644592285156,0.2326752245426178
1772467514815134500,10.994134521484375,0.48462820053100586,-0.00618743896484375,0.4199851155281067
1772467514825140500,11.004140380859376,0.6145330667495728,0.3026161193847656,0.5442026257514954
1772467514835146200,11.014146240234375,0.668808102607727,0.7728796005249023,0.5191695094108582
1772467514845152000,11.024152099609376,0.6046258211135864,1.2752227783203125,0.5136557221412659
1772467514855158000,11.034157958984375,0.42034196853637695,1.6952953338623047,0.6763348579406738
1772467514865163800,11.044163818359374,0.41669678688049316,2.1862449645996094,0.7007299661636353
1772467514875169500,11.05416943359375,0.5940582752227783,2.3512954711914062,0.554469108581543
1772467514885175600,11.064175537109374,0.6861028671264648,2.186166763305664,0.5065890550613403
1772467514895181300,11.074181396484375,0.5171455144882202,2.078413963317871,0.5087223052978516
1772467514915192800,11.09419287109375,-0.058239102363586426,1.830491065979004,0.126522034406662
1772467514925198800,11.10419873046875,-0.21264910697937012,1.7479667663574219,-0.021384740248322487
1772467514935204600,11.11420458984375,-0.22918212413787842,1.4509658813476562,-0.10784847289323807
1772467514945210400,11.12421044921875,-0.06041312217712402,0.9925651550292969,-0.24377506971359253
1772467514955216400,11.13421630859375,0.46739959716796875,0.6258373260498047,-0.4786844253540039
1772467514965222100,11.14422216796875,0.8876183032989502,0.39780521392822266,-0.6368853449821472
1772467514975228000,11.154227783203124,1.0380933284759521,0.46572113037109375,-0.5903533697128296
1772467514985233700,11.164233642578125,1.0943634510040283,0.8913326263427734,-0.5154104828834534
1772467514995239700,11.17423974609375,0.9705948829650879,1.6642217636108398,-0.5340532064437866
1772467515005245400,11.184245361328125,0.4607510566711426,2.807650566101074,-0.3743235766887665
1772467515015251200,11.194251220703125,-0.28807318210601807,3.8195810317993164,-0.35886529088020325
1772467515025257200,11.20425732421875,-1.2356886863708496,4.46702766418457,-0.5983526706695557
1772467515035263000,11.214262939453125,-1.987636685371399,4.21649169921875,-0.6969600915908813
1772467515045268700,11.224268798828126,-2.0313708782196045,3.074589729309082,-0.9404695630073547
1772467515055274500,11.2342744140625,-1.6547503471374512,1.467514991760254,-0.6614496111869812
1772467515065280500,11.244280517578124,-1.102554440498352,-0.2750282287597656,-0.15804064273834229
1772467515075286300,11.254286376953125,-0.6115673780441284,-1.2887334823608398,0.18563774228096008
1772467515085292000,11.2642919921875,-0.28090977668762207,-1.413254737854004,0.38459688425064087
1772467515095298000,11.274298095703125,-0.0029327869415283203,-0.9283180236816406,0.4592505395412445
1772467515105303800,11.2843037109375,0.17709136009216309,-0.2180652618408203,0.47006475925445557
1772467515115309800,11.294309814453126,0.0970001220703125,0.2871074676513672,0.4828413426876068
1772467515125315600,11.304315673828125,-0.25468361377716064,0.6599884033203125,0.6434227824211121
1772467515135321600,11.314321533203126,-0.6044900417327881,0.8970956802368164,0.5526459217071533
1772467515145327400,11.324327392578125,-0.8802337646484375,0.8564338684082031,0.19492651522159576
1772467515155333000,11.3343330078125,-1.0660536289215088,0.6110067367553711,0.0415014773607254
1772467515165339100,11.344339111328125,-1.1508458852767944,0.1427774429321289,0.03948614001274109
1772467515175345000,11.354344970703124,-1.0737136602401733,-0.523681640625,-0.12319763004779816
1772467515185351000,11.364350830078125,-0.8623971343040466,-1.2353239059448242,-0.17512553930282593
1772467515195356700,11.374356689453125,-0.5779352188110352,-1.8586225509643555,-0.11524161696434021
1772467515205362700,11.38436279296875,-0.31446850299835205,-2.3176827430725098,-0.15897111594676971
1772467515215368400,11.394368408203125,-0.2341705560684204,-2.7132482528686523,-0.2162393033504486
1772467515225374500,11.40437451171875,-0.37625277042388916,-3.1073203086853027,-0.3255739212036133
1772467515235380200,11.414380126953125,-0.5703885555267334,-3.356238842010498,-0.43972569704055786
1772467515245386200,11.42438623046875,-0.6598283052444458,-3.5127549171447754,-0.5258265137672424
1772467515255392000,11.43439208984375,-0.6836702823638916,-3.6200027465820312,-0.5747979879379272
1772467515275403800,11.45440380859375,-0.3995143175125122,-3.6254520416259766,-0.5736938118934631
1772467515285409800,11.464409912109375,-0.1351611614227295,-3.4197964668273926,-0.5377523899078369
1772467515295415600,11.47441552734375,0.11497366428375244,-3.0762572288513184,-0.48839032649993896
1772467515305421600,11.484421630859375,0.23203027248382568,-2.5713987350463867,-0.419902503490448
1772467515315427300,11.49442724609375,0.11940300464630127,-1.8815031051635742,-0.3130033016204834
1772467515325433300,11.504433349609375,-0.0669022798538208,-1.145172119140625,-0.2344336360692978
1772467515335439000,11.514439208984374,-0.09866726398468018,-0.45307445526123047,-0.1734781116247177
1772467515345445000,11.524445068359375,-0.09482192993164062,0.2138538360595703,-0.04345986247062683
1772467515355451000,11.534450927734374,-0.10284459590911865,0.8938093185424805,0.07079371809959412
1772467515365457000,11.544456787109375,-0.02190876007080078,1.300095558166504,-0.09787608683109283
1772467515375462700,11.554462646484374,0.07276058197021484,1.4570674896240234,-0.13026046752929688
1772467515385468700,11.56446875,0.18146193027496338,1.4417295455932617,-0.11860472708940506
1772467515395474400,11.574474365234375,0.3999333381652832,1.24493408203125,-0.06425130367279053
1772467515405480400,11.58448046875,0.48838984966278076,1.1060943603515625,-0.04993557557463646
1772467515415486200,11.594486328125,0.4230968952178955,1.0251102447509766,-0.08188137412071228
1772467515425492200,11.6044921875,0.4769015312194824,0.9158267974853516,-0.07960767298936844
1772467515435498000,11.614498046875,0.5944002866744995,0.8781948089599609,-0.004553675651550293
1772467515445504000,11.62450390625,0.6376125812530518,1.0695085525512695,0.024452216923236847
1772467515455509800,11.634509765625,0.7017717361450195,1.4701871871948242,0.025764822959899902
1772467515465515800,11.644515869140625,0.8118586540222168,1.902756690979004,0.009197525680065155
1772467515475521500,11.654521484375,0.7718100547790527,2.4005870819091797,0.023233696818351746
1772467515485527600,11.664527587890625,0.8501888513565063,2.6290359497070312,-0.07533115148544312
1772467515495533300,11.674533203125,0.9055184125900269,2.6361398696899414,-0.10459500551223755
1772467515505539300,11.684539306640625,0.7214875221252441,2.523045539855957,-0.011707037687301636
1772467515515545000,11.694545166015626,0.4426354169845581,2.472370147705078,0.04137071967124939
1772467515525551000,11.704551025390625,0.5589796304702759,2.441399574279785,0.0976279079914093
1772467515535556900,11.714556884765624,0.7595990896224976,2.4968395233154297,0.29156696796417236
1772467515545563000,11.72456298828125,0.777830958366394,2.719400405883789,0.5205632448196411
1772467515555569400,11.7345693359375,0.6438642740249634,2.8456668853759766,0.710553765296936
1772467515565575400,11.744575439453126,0.402011513710022,2.775334358215332,0.8435881733894348
1772467515575581400,11.75458154296875,-0.12443363666534424,2.494546890258789,0.8590853214263916
1772467515585587200,11.764587158203126,-0.7596004009246826,1.956319808959961,0.7296209335327148
1772467515595593200,11.77459326171875,-1.1758372783660889,1.0662469863891602,0.39126139879226685
1772467515605599000,11.784598876953124,-1.1544039249420166,0.026029586791992188,0.012528806924819946
1772467515615605000,11.79460498046875,-0.9585581421852112,-0.8773832321166992,-0.14187917113304138
1772467515625610800,11.80461083984375,-0.6831456422805786,-1.5728511810302734,-0.20308908820152283
1772467515635616500,11.814616455078125,-0.4137876033782959,-1.8794679641723633,-0.25349369645118713
1772467515645622500,11.82462255859375,-0.11222386360168457,-1.8603029251098633,-0.23117396235466003
1772467515655628300,11.834628173828126,0.1698164939880371,-1.4877262115478516,-0.039110928773880005
1772467515665634000,11.844634033203125,0.30051088333129883,-0.8490133285522461,0.1623348593711853
1772467515675640000,11.85464013671875,0.286285400390625,-0.3415975570678711,0.21357783675193787
1772467515685645800,11.864645751953125,0.1714414358139038,0.02026844024658203,0.3660222291946411
1772467515695651600,11.874651611328124,-0.15980291366577148,0.13687610626220703,0.4584503769874573
1772467515705657300,11.8846572265625,-0.5943686962127686,0.1382122039794922,0.47223854064941406
1772467515715663400,11.894663330078124,-0.9481849670410156,-0.06089591979980469,0.382676362991333
1772467515725669000,11.904669189453125,-1.127424716949463,-0.47867584228515625,0.15356922149658203
1772467515735675000,11.9146748046875,-1.156775951385498,-1.0762109756469727,0.10642901062965393
1772467515745681000,11.924680908203126,-0.9880971312522888,-1.7910680770874023,0.1384422332048416
1772467515755687200,11.934687255859375,-0.7296654582023621,-2.5086846351623535,0.11901406943798065
1772467515765693000,11.94469287109375,-0.633064866065979,-2.966677665710449,0.16651210188865662
1772467515775699000,11.954698974609375,-0.6119873523712158,-3.1370444297790527,0.08898894488811493
1772467515785704700,11.96470458984375,-0.6235634088516235,-3.1924242973327637,0.05912403017282486
1772467515795710700,11.974710693359375,-0.6010550260543823,-3.16652250289917,0.05359615385532379
1772467515805716500,11.984716552734374,-0.4969143867492676,-2.9687862396240234,-0.01678749918937683
1772467515825728300,12.004728271484375,-0.04711174964904785,-2.613593101501465,0.057699866592884064
1772467515835734000,12.014734130859376,0.11194252967834473,-2.4130492210388184,0.1033463329076767
1772467515845739800,12.02473974609375,0.2369852066040039,-2.189086437225342,0.07755900174379349
1772467515855745800,12.034745849609376,0.30310165882110596,-1.7887334823608398,0.1383674293756485
1772467515865751600,12.04475146484375,0.3232285976409912,-1.2790584564208984,0.17662987112998962
1772467515875757300,12.05475732421875,0.3585454225540161,-0.8369102478027344,0.2128993570804596
1772467515885763000,12.06476318359375,0.33217763900756836,-0.44771575927734375,0.25154340267181396
1772467515895769000,12.07476904296875,0.22383761405944824,-0.1397724151611328,0.3309635818004608
1772467515905774800,12.08477490234375,0.2528252601623535,0.07291889190673828,0.30276262760162354
1772467515915780600,12.094780517578124,0.33371877670288086,0.13794326782226562,0.2953794002532959
1772467515925786600,12.10478662109375,0.5165926218032837,0.021852493286132812,0.313015878200531
1772467515935792400,12.11479248046875,0.7371847629547119,-0.11297893524169922,0.39366328716278076
1772467515945798100,12.124798095703126,0.9020321369171143,-0.190460205078125,0.3980613946914673
1772467515955804200,12.13480419921875,0.921553373336792,-0.14883995056152344,0.3488925099372864
1772467515975816000,12.15481591796875,0.8332955837249756,0.21373844146728516,0.11904485523700714
1772467515985822000,12.164822021484374,0.8015159368515015,0.5534095764160156,0.1391654908657074
1772467515995828000,12.174827880859375,0.844117283821106,1.068471908569336,0.12832880020141602
1772467516005833700,12.184833740234374,0.7743290662765503,1.610468864440918,0.13517345488071442
1772467516015839700,12.19483984375,0.6483206748962402,2.045858383178711,0.1559867113828659
1772467516025845800,12.204845703125,0.46997928619384766,2.3607683181762695,0.12386932969093323
1772467516035851500,12.2148515625,0.3813900947570801,2.493649482727051,0.1763250231742859
1772467516055863600,12.234863525390624,0.34382593631744385,2.553990364074707,0.17843736708164215
1772467516065869300,12.244869384765625,0.3240211009979248,2.4003915786743164,0.12906014919281006
1772467516075875000,12.254875,0.4003171920776367,2.2231979370117188,-0.0021436717361211777
1772467516085880800,12.264880859375,0.5788990259170532,2.141571044921875,-0.10991774499416351
1772467516095886800,12.274886962890625,0.7545291185379028,2.117039680480957,-0.05611531436443329
1772467516105892600,12.284892578125,0.864806056022644,2.1781816482543945,0.04001959413290024
1772467516115898400,12.2948984375,0.9046047925949097,2.4156312942504883,-0.06408416479825974
1772467516125904400,12.304904296875,0.562812089920044,2.566396713256836,-0.1475580334663391
1772467516135910100,12.31491015625,-0.00842428207397461,2.640559196472168,-0.12349103391170502
1772467516145916000,12.324916015625,-0.6484140157699585,2.500211715698242,-0.36946505308151245
1772467516155848000,12.334847900390624,-1.3215314149856567,2.0747575759887695,-0.7685865163803101
1772467516165785600,12.34478564453125,-1.5264805555343628,1.3124275207519531,-1.0796705484390259
1772467516175732000,12.35473193359375,-1.2856338024139404,0.3473196029663086,-1.1954693794250488
1772467516185688600,12.3646884765625,-0.8546268939971924,-0.5388650894165039,-1.1076927185058594
1772467516195657200,12.3746572265625,-0.45034122467041016,-1.0555601119995117,-0.9985906481742859
1772467516205639000,12.384638916015625,-0.14693999290466309,-1.0464563369750977,-0.7957574725151062
1772467516215634000,12.394634033203126,0.11535418033599854,-0.5467109680175781,-0.5346159934997559
1772467516235663600,12.41466357421875,0.3790309429168701,1.0354909896850586,-0.04131557047367096
1772467516245696300,12.4246962890625,0.026944637298583984,1.5680313110351562,0.06785234808921814
1772467516255739100,12.4347392578125,-0.4291774034500122,1.6063299179077148,0.012946516275405884
1772467516265790000,12.4447900390625,-0.8204240202903748,1.2334480285644531,-0.024878129363059998
1772467516275847000,12.454846923828125,-1.1123440265655518,0.5513992309570312,-0.11925512552261353
1772467516285907700,12.46490771484375,-1.236375331878662,-0.33822059631347656,-0.21534590423107147
1772467516295969800,12.4749697265625,-1.27556574344635,-1.3773126602172852,-0.20198175311088562
1772467516306010400,12.48501025390625,-1.169072151184082,-2.297868251800537,-0.14768168330192566
1772467516316016000,12.49501611328125,-0.8876163959503174,-3.0812854766845703,-0.06161870062351227
1772467516326022100,12.505022216796876,-0.6254483461380005,-3.6996078491210938,-0.01999962329864502
1772467516336028000,12.51502783203125,-0.5011322498321533,-4.143845081329346,-0.031487852334976196
1772467516346033700,12.52503369140625,-0.4808475971221924,-4.366671085357666,-0.04830901324748993
1772467516356035800,12.535035888671874,-0.23872709274291992,-4.340096950531006,-0.1905558854341507
1772467516376040400,12.55504052734375,0.11423635482788086,-3.8432130813598633,-0.38333356380462646
1772467516386043400,12.56504345703125,0.16559231281280518,-3.5554466247558594,-0.4187333285808563
1772467516396047000,12.575047119140624,0.2376718521118164,-3.197030544281006,-0.42599719762802124
1772467516406051600,12.585051513671875,0.33572614192962646,-2.811250686645508,-0.32757681608200073
1772467516416056600,12.595056640625,0.34045183658599854,-2.388672351837158,-0.2470771074295044
1772467516426062600,12.6050625,0.236677885055542,-1.9148874282836914,-0.23645232617855072
1772467516436069000,12.615069091796874,0.1521056890487671,-1.4184284210205078,-0.2425473928451538
1772467516446076200,12.625076171875,0.14242637157440186,-0.9086198806762695,-0.1991366446018219
1772467516456084000,12.635083984375,0.22636091709136963,-0.4857673645019531,-0.13495400547981262
1772467516466092300,12.64509228515625,0.30403804779052734,-0.25009822845458984,-0.10127881169319153
1772467516476100900,12.655100830078124,0.5160636901855469,-0.04388713836669922,-0.11678756773471832
1772467516486109700,12.665109619140624,0.5907485485076904,0.2904205322265625,-0.07661984860897064
1772467516496118500,12.675118408203126,0.5086073875427246,0.6571311950683594,-0.13476283848285675
1772467516506127600,12.685127685546876,0.38713300228118896,0.9706134796142578,-0.16287541389465332
1772467516516133600,12.695133544921875,0.2819952964782715,1.2217721939086914,-0.266946941614151
1772467516526139400,12.705139404296874,0.23564434051513672,1.4825096130371094,-0.2706013023853302
1772467516536145200,12.715145263671875,0.2576878070831299,1.7718820571899414,-0.2411014586687088
1772467516546151200,12.725151123046874,0.25192224979400635,2.0612688064575195,-0.25113266706466675
1772467516556153300,12.7351533203125,0.3716930150985718,2.2073163986206055,-0.19592539966106415
1772467516576158000,12.755157958984375,0.5594608783721924,2.336796760559082,-0.09064587950706482
1772467516586161000,12.765160888671875,0.4444619417190552,2.2435121536254883,-0.18940329551696777
1772467516596164600,12.77516455078125,0.28261876106262207,2.0787458419799805,-0.1991337686777115
1772467516606169000,12.785169189453125,0.10268962383270264,1.9429817199707031,-0.2683456242084503
1772467516616174000,12.795174072265626,-0.024466872215270996,1.7407770156860352,-0.4742475152015686
1772467516626180000,12.80518017578125,0.048261046409606934,1.4867973327636719,-0.5743292570114136
1772467516636186600,12.8151865234375,0.19018518924713135,1.3199491500854492,-0.47906604409217834
1772467516646193700,12.825193603515626,0.3575540781021118,1.5076408386230469,-0.2600456476211548
1772467516656201500,12.835201416015625,0.6964124441146851,1.8956098556518555,-0.13618461787700653
1772467516666209800,12.845209716796875,0.8709102869033813,2.27719783782959,0.235108882188797
1772467516676218400,12.85521826171875,0.6599304676055908,2.6039505004882812,0.762991189956665
1772467516686227200,12.865227294921874,0.3568735122680664,2.8756637573242188,0.95941162109375
1772467516696236000,12.875236083984374,0.05864155292510986,2.853364944458008,0.8453548550605774
1772467516706244900,12.885244873046876,-0.36905550956726074,2.2465686798095703,0.6498110890388489
1772467516716251000,12.8952509765625,-0.7426455020904541,1.1434450149536133,0.29230213165283203
