time,seconds_elapsed,z,y,x
1771873899166889200,0.13488916015625,9.927556991577148,-0.03890577703714371,-0.181959331035614
1771873899186890000,0.154889892578125,9.917980194091797,-0.048482585698366165,-0.22026655077934265
1771873899196891600,0.1648916015625,9.836577415466309,-0.03890577703714371,-0.22026655077934265
1771873899206894300,0.174894287109375,9.793481826782227,-0.03411737456917763,-0.2585737705230713
1771873899216898000,0.18489794921875,9.81263542175293,-0.03411737456917763,-0.2346317619085312
1771873899226903000,0.194903076171875,9.865307807922363,-0.03890577703714371,-0.1628057211637497
1771873899236909000,0.204908935546875,9.90361499786377,-0.04369417950510979,-0.1149216815829277
1771873899246916400,0.214916259765625,9.927556991577148,-0.04369417950510979,-0.11013327538967133
1771873899256924700,0.224924560546875,9.894038200378418,-0.04369417950510979,-0.12449848651885986
1771873899266933800,0.234933837890625,9.855731010437012,-0.03890577703714371,-0.14844051003456116
1771873899276943600,0.244943603515625,9.841365814208984,-0.03890577703714371,-0.17717093229293823
1771873899286954200,0.254954345703125,9.841365814208984,-0.0293289702385664,-0.19632454216480255
1771873899296964900,0.26496484375,9.870096206665039,-0.03890577703714371,-0.19153612852096558
1771873899306976000,0.27497607421875,9.894038200378418,-0.04369417950510979,-0.181959331035614
1771873899316986400,0.284986328125,9.889249801635742,-0.04369417950510979,-0.19632454216480255
1771873899326992600,0.29499267578125,9.874884605407715,-0.048482585698366165,-0.2059013396501541
1771873899336998700,0.30499853515625,9.850942611694336,-0.03890577703714371,-0.20111294090747833
1771873899347004700,0.315004638671875,9.84615421295166,-0.03411737456917763,-0.2059013396501541
1771873899357010700,0.3250107421875,9.860519409179688,-0.048482585698366165,-0.181959331035614
1771873899367016700,0.3350166015625,9.870096206665039,-0.03890577703714371,-0.17238251864910126
1771873899377022700,0.345022705078125,9.874884605407715,-0.03890577703714371,-0.15322890877723694
1771873899387028700,0.35502880859375,9.870096206665039,-0.03890577703714371,-0.13407529890537262
1771873899397034800,0.36503466796875,9.87967300415039,-0.03890577703714371,-0.15322890877723694
1771873899407041000,0.375041015625,9.865307807922363,-0.03890577703714371,-0.15322890877723694
1771873899417047000,0.385047119140625,9.860519409179688,-0.03890577703714371,-0.1628057211637497
1771873899427053000,0.395052978515625,9.865307807922363,-0.04369417950510979,-0.1628057211637497
1771873899437059000,0.40505908203125,9.870096206665039,-0.048482585698366165,-0.1628057211637497
1771873899447065000,0.415065185546875,9.874884605407715,-0.03890577703714371,-0.17238251864910126
1771873899457071000,0.425071044921875,9.870096206665039,-0.04369417950510979,-0.20111294090747833
1771873899467077000,0.4350771484375,9.865307807922363,-0.03890577703714371,-0.22026655077934265
1771873899477083100,0.445083251953125,9.855731010437012,-0.03890577703714371,-0.22026655077934265
1771873899487089200,0.455089111328125,9.860519409179688,-0.03890577703714371,-0.19153612852096558
1771873899497095200,0.46509521484375,9.860519409179688,-0.03890577703714371,-0.17717093229293823
1771873899507101400,0.475101318359375,9.870096206665039,-0.04369417950510979,-0.15801730751991272
1771873899517107500,0.485107421875,9.87967300415039,-0.04369417950510979,-0.14365209639072418
1771873899527113500,0.495113525390625,9.874884605407715,-0.04369417950510979,-0.14844051003456116
1771873899537119500,0.505119384765625,9.870096206665039,-0.03890577703714371,-0.17238251864910126
1771873899547125500,0.51512548828125,9.860519409179688,-0.03890577703714371,-0.17717093229293823
1771873899557131500,0.525131591796875,9.855731010437012,-0.03890577703714371,-0.17717093229293823
1771873899567137500,0.535137451171875,9.865307807922363,-0.04369417950510979,-0.17717093229293823
1771873899577143600,0.5451435546875,9.874884605407715,-0.03890577703714371,-0.19153612852096558
1771873899587149600,0.555149658203125,9.870096206665039,-0.03890577703714371,-0.1867477297782898
1771873899597155600,0.565155517578125,9.860519409179688,-0.04369417950510979,-0.181959331035614
1771873899607161900,0.575161865234375,9.865307807922363,-0.03411737456917763,-0.16759411990642548
1771873899617168000,0.58516796875,9.870096206665039,-0.03890577703714371,-0.1628057211637497
1771873899627174000,0.595173828125,9.860519409179688,-0.03890577703714371,-0.15801730751991272
1771873899637180000,0.605179931640625,9.874884605407715,-0.048482585698366165,-0.15322890877723694
1771873899647186000,0.61518603515625,9.874884605407715,-0.048482585698366165,-0.15322890877723694
1771873899657192000,0.62519189453125,9.870096206665039,-0.04369417950510979,-0.1628057211637497
1771873899667198200,0.6351982421875,9.874884605407715,-0.03411737456917763,-0.1867477297782898
1771873899677204200,0.645204345703125,9.860519409179688,-0.03890577703714371,-0.19632454216480255
1771873899687210200,0.655210205078125,9.860519409179688,-0.048482585698366165,-0.2106897532939911
1771873899697216500,0.665216552734375,9.870096206665039,-0.03890577703714371,-0.20111294090747833
1771873899707222500,0.675222412109375,9.860519409179688,-0.03890577703714371,-0.181959331035614
1771873899717228500,0.685228515625,9.865307807922363,-0.04369417950510979,-0.14844051003456116
1771873899727234600,0.695234619140625,9.874884605407715,-0.03890577703714371,-0.14844051003456116
1771873899737240800,0.70524072265625,9.870096206665039,-0.04369417950510979,-0.15801730751991272
1771873899747246800,0.715246826171875,9.874884605407715,-0.03890577703714371,-0.17717093229293823
1771873899757252900,0.7252529296875,9.865307807922363,-0.03890577703714371,-0.1867477297782898
1771873899767259100,0.735259033203125,9.855731010437012,-0.04369417950510979,-0.19632454216480255
1771873899777265200,0.74526513671875,9.855731010437012,-0.03411737456917763,-0.19153612852096558
1771873899787271200,0.755271240234375,9.865307807922363,-0.03890577703714371,-0.17717093229293823
1771873899797277400,0.76527734375,9.874884605407715,-0.03890577703714371,-0.17717093229293823
1771873899807283500,0.775283447265625,9.865307807922363,-0.048482585698366165,-0.17238251864910126
1771873899817289500,0.78528955078125,9.874884605407715,-0.03890577703714371,-0.181959331035614
1771873899827295500,0.79529541015625,9.865307807922363,-0.03890577703714371,-0.17717093229293823
1771873899837301800,0.8053017578125,9.860519409179688,-0.03890577703714371,-0.1628057211637497
1771873899847307800,0.815307861328125,9.855731010437012,-0.03890577703714371,-0.15801730751991272
1771873899857313800,0.825313720703125,9.874884605407715,-0.03890577703714371,-0.15322890877723694
1771873899867320000,0.835320068359375,9.874884605407715,-0.03890577703714371,-0.15801730751991272
1771873899877326000,0.845326171875,9.870096206665039,-0.03890577703714371,-0.17717093229293823
1771873899887332000,0.85533203125,9.865307807922363,-0.03411737456917763,-0.19153612852096558
1771873899897338400,0.86533837890625,9.865307807922363,-0.03890577703714371,-0.19632454216480255
1771873899907344400,0.875344482421875,9.865307807922363,-0.04369417950510979,-0.2059013396501541
1771873899917350400,0.885350341796875,9.870096206665039,-0.03890577703714371,-0.20111294090747833
1771873899927356400,0.8953564453125,9.865307807922363,-0.03890577703714371,-0.16759411990642548
1771873899937362700,0.90536279296875,9.865307807922363,-0.04369417950510979,-0.16759411990642548
1771873899947368700,0.91536865234375,9.860519409179688,-0.053270988166332245,-0.16759411990642548
1771873899957374700,0.925374755859375,9.870096206665039,-0.04369417950510979,-0.17238251864910126
1771873899967381000,0.935381103515625,9.870096206665039,-0.03890577703714371,-0.17238251864910126
1771873899977387000,0.945386962890625,9.865307807922363,-0.04369417950510979,-0.17238251864910126
1771873899987393000,0.95539306640625,9.855731010437012,-0.04369417950510979,-0.17238251864910126
1771873899997399300,0.9653994140625,9.860519409179688,-0.04369417950510979,-0.16759411990642548
1771873900007405300,0.9754052734375,9.870096206665039,-0.03890577703714371,-0.17717093229293823
1771873900017411300,0.985411376953125,9.874884605407715,-0.04369417950510979,-0.1867477297782898
1771873900027417600,0.99541748046875,9.865307807922363,-0.04369417950510979,-0.21547815203666687
1771873900037423600,1.005423583984375,9.865307807922363,-0.03890577703714371,-0.22026655077934265
1771873900047429600,1.0154296875,9.855731010437012,-0.03411737456917763,-0.2106897532939911
1771873900057435600,1.025435546875,9.855731010437012,-0.03890577703714371,-0.19153612852096558
1771873900067442000,1.03544189453125,9.855731010437012,-0.048482585698366165,-0.1628057211637497
1771873900077448000,1.045447998046875,9.874884605407715,-0.04369417950510979,-0.11971008777618408
1771873900087454000,1.055453857421875,9.865307807922363,-0.03411737456917763,-0.090979665517807
1771873900097460200,1.065460205078125,9.87967300415039,-0.04369417950510979,-0.090979665517807
1771873900107466200,1.07546630859375,9.87967300415039,-0.04369417950510979,-0.12928688526153564
1771873900117472300,1.08547216796875,9.870096206665039,-0.04369417950510979,-0.15801730751991272
1771873900137484500,1.105484619140625,9.855731010437012,-0.03890577703714371,-0.22026655077934265
1771873900147490600,1.115490478515625,9.855731010437012,-0.03411737456917763,-0.23942017555236816
1771873900157496600,1.12549658203125,9.860519409179688,-0.03890577703714371,-0.2346317619085312
1771873900167502800,1.1355029296875,9.870096206665039,-0.03890577703714371,-0.2106897532939911
1771873900177508900,1.1455087890625,9.865307807922363,-0.03890577703714371,-0.20111294090747833
1771873900187515000,1.155514892578125,9.874884605407715,-0.04369417950510979,-0.19632454216480255
1771873900197521200,1.165521240234375,9.874884605407715,-0.048482585698366165,-0.181959331035614
1771873900207527200,1.175527099609375,9.860519409179688,-0.03890577703714371,-0.15801730751991272
1771873900217533200,1.185533203125,9.860519409179688,-0.04369417950510979,-0.15801730751991272
1771873900227539500,1.19553955078125,9.870096206665039,-0.03890577703714371,-0.14844051003456116
1771873900237545500,1.20554541015625,9.860519409179688,-0.04369417950510979,-0.13407529890537262
1771873900247551500,1.215551513671875,9.874884605407715,-0.048482585698366165,-0.1388636976480484
1771873900257557800,1.225557861328125,9.87967300415039,-0.048482585698366165,-0.15801730751991272
1771873900267563800,1.235563720703125,9.870096206665039,-0.04369417950510979,-0.17238251864910126
1771873900277569800,1.24556982421875,9.870096206665039,-0.04369417950510979,-0.1867477297782898
1771873900287575800,1.255575927734375,9.855731010437012,-0.03890577703714371,-0.2106897532939911
1771873900297582000,1.26558203125,9.870096206665039,-0.04369417950510979,-0.2059013396501541
1771873900307588000,1.275588134765625,9.865307807922363,-0.03890577703714371,-0.1867477297782898
1771873900317594000,1.285593994140625,9.870096206665039,-0.04369417950510979,-0.17238251864910126
1771873900327600400,1.295600341796875,9.870096206665039,-0.03890577703714371,-0.15801730751991272
1771873900337606400,1.3056064453125,9.870096206665039,-0.04369417950510979,-0.15801730751991272
1771873900347612400,1.3156123046875,9.865307807922363,-0.03890577703714371,-0.15801730751991272
1771873900357618700,1.32561865234375,9.870096206665039,-0.04369417950510979,-0.17238251864910126
1771873900367624700,1.335624755859375,9.865307807922363,-0.04369417950510979,-0.17717093229293823
1771873900377630700,1.345630615234375,9.850942611694336,-0.03890577703714371,-0.1867477297782898
1771873900387636700,1.35563671875,9.865307807922363,-0.04369417950510979,-0.19632454216480255
1771873900397643000,1.36564306640625,9.865307807922363,-0.03890577703714371,-0.19632454216480255
1771873900407649000,1.37564892578125,9.865307807922363,-0.04369417950510979,-0.1867477297782898
1771873900417655000,1.385655029296875,9.870096206665039,-0.03890577703714371,-0.181959331035614
1771873900427661300,1.395661376953125,9.865307807922363,-0.03411737456917763,-0.181959331035614
1771873900437667300,1.405667236328125,9.860519409179688,-0.03890577703714371,-0.16759411990642548
1771873900447673300,1.41567333984375,9.870096206665039,-0.04369417950510979,-0.15801730751991272
1771873900457679600,1.4256796875,9.870096206665039,-0.03890577703714371,-0.15801730751991272
1771873900467685600,1.435685546875,9.874884605407715,-0.03890577703714371,-0.16759411990642548
1771873900477691600,1.445691650390625,9.870096206665039,-0.04369417950510979,-0.16759411990642548
1771873900487697700,1.45569775390625,9.860519409179688,-0.03411737456917763,-0.17238251864910126
1771873900497704000,1.465703857421875,9.865307807922363,-0.04369417950510979,-0.17717093229293823
1771873900507710000,1.4757099609375,9.870096206665039,-0.03411737456917763,-0.181959331035614
1771873900517716000,1.485716064453125,9.865307807922363,-0.03890577703714371,-0.17238251864910126
1771873900527722200,1.49572216796875,9.865307807922363,-0.04369417950510979,-0.17238251864910126
1771873900537728300,1.505728271484375,9.870096206665039,-0.03890577703714371,-0.17238251864910126
1771873900547734300,1.515734375,9.865307807922363,-0.04369417950510979,-0.1867477297782898
1771873900557740500,1.525740478515625,9.865307807922363,-0.03890577703714371,-0.181959331035614
1771873900567746600,1.53574658203125,9.860519409179688,-0.03890577703714371,-0.181959331035614
1771873900577752600,1.545752685546875,9.865307807922363,-0.04369417950510979,-0.181959331035614
1771873900587758800,1.5557587890625,9.870096206665039,-0.03890577703714371,-0.17717093229293823
1771873900597764900,1.565764892578125,9.865307807922363,-0.04369417950510979,-0.17238251864910126
1771873900607771000,1.57577099609375,9.860519409179688,-0.03890577703714371,-0.1628057211637497
1771873900617777000,1.58577685546875,9.874884605407715,-0.03890577703714371,-0.16759411990642548
1771873900627783200,1.595783203125,9.874884605407715,-0.04369417950510979,-0.17238251864910126
1771873900637789200,1.6057890625,9.865307807922363,-0.048482585698366165,-0.181959331035614
1771873900647795200,1.615795166015625,9.860519409179688,-0.04369417950510979,-0.1867477297782898
1771873900657801500,1.625801513671875,9.865307807922363,-0.03890577703714371,-0.19632454216480255
1771873900667807500,1.635807373046875,9.865307807922363,-0.03411737456917763,-0.19153612852096558
1771873900677813500,1.6458134765625,9.860519409179688,-0.03411737456917763,-0.17238251864910126
1771873900687819800,1.65581982421875,9.865307807922363,-0.03890577703714371,-0.15801730751991272
1771873900697825800,1.66582568359375,9.865307807922363,-0.03411737456917763,-0.15322890877723694
1771873900707831800,1.675831787109375,9.870096206665039,-0.03890577703714371,-0.15322890877723694
1771873900717837800,1.685837890625,9.870096206665039,-0.04369417950510979,-0.1628057211637497
1771873900727843800,1.69584375,9.865307807922363,-0.04369417950510979,-0.17717093229293823
1771873900737849900,1.705849853515625,9.865307807922363,-0.03890577703714371,-0.17717093229293823
1771873900747856000,1.71585595703125,9.860519409179688,-0.04369417950510979,-0.1867477297782898
1771873900757862000,1.72586181640625,9.870096206665039,-0.03890577703714371,-0.17717093229293823
1771873900767868000,1.735867919921875,9.870096206665039,-0.03890577703714371,-0.181959331035614
1771873900777874000,1.7458740234375,9.870096206665039,-0.03890577703714371,-0.17238251864910126
1771873900787880200,1.755880126953125,9.865307807922363,-0.03890577703714371,-0.181959331035614
1771873900797886200,1.76588623046875,9.870096206665039,-0.04369417950510979,-0.181959331035614
1771873900807892200,1.775892333984375,9.865307807922363,-0.04369417950510979,-0.181959331035614
1771873900817898200,1.785898193359375,9.865307807922363,-0.03890577703714371,-0.181959331035614
1771873900827904300,1.795904296875,9.865307807922363,-0.048482585698366165,-0.17717093229293823
1771873900837910300,1.80591015625,9.870096206665039,-0.04369417950510979,-0.181959331035614
1771873900847916300,1.815916259765625,9.870096206665039,-0.03411737456917763,-0.181959331035614
1771873900857922300,1.82592236328125,9.865307807922363,-0.04369417950510979,-0.1867477297782898
1771873900867928300,1.83592822265625,9.860519409179688,-0.04369417950510979,-0.17717093229293823
1771873900877934300,1.845934326171875,9.865307807922363,-0.03890577703714371,-0.16759411990642548
1771873900887940600,1.855940673828125,9.870096206665039,-0.03890577703714371,-0.1628057211637497
1771873900897946600,1.865946533203125,9.865307807922363,-0.04369417950510979,-0.1628057211637497
1771873900907952600,1.87595263671875,9.865307807922363,-0.04369417950510979,-0.15801730751991272
1771873900917958700,1.885958740234375,9.870096206665039,-0.048482585698366165,-0.16759411990642548
1771873900927964700,1.895964599609375,9.870096206665039,-0.03411737456917763,-0.17717093229293823
1771873900937970700,1.905970703125,9.870096206665039,-0.03411737456917763,-0.1867477297782898
1771873900947976700,1.915976806640625,9.865307807922363,-0.03890577703714371,-0.19632454216480255
1771873900957982700,1.925982666015625,9.855731010437012,-0.04369417950510979,-0.20111294090747833
1771873900967988700,1.93598876953125,9.860519409179688,-0.03411737456917763,-0.19632454216480255
1771873900977994800,1.945994873046875,9.865307807922363,-0.03411737456917763,-0.181959331035614
1771873900988001000,1.9560009765625,9.870096206665039,-0.04369417950510979,-0.181959331035614
1771873900998007000,1.966007080078125,9.865307807922363,-0.04369417950510979,-0.15801730751991272
1771873901008013000,1.976012939453125,9.860519409179688,-0.03890577703714371,-0.14844051003456116
1771873901018019000,1.98601904296875,9.865307807922363,-0.03890577703714371,-0.15801730751991272
1771873901028025000,1.996025146484375,9.870096206665039,-0.03890577703714371,-0.15801730751991272
1771873901038031400,2.00603125,9.870096206665039,-0.04369417950510979,-0.17238251864910126
1771873901048037400,2.016037353515625,9.860519409179688,-0.04369417950510979,-0.1867477297782898
1771873901058043400,2.02604345703125,9.860519409179688,-0.04369417950510979,-0.1867477297782898
1771873901068049700,2.036049560546875,9.855731010437012,-0.04369417950510979,-0.20111294090747833
1771873901078055700,2.0460556640625,9.865307807922363,-0.048482585698366165,-0.19153612852096558
1771873901088061700,2.056061767578125,9.865307807922363,-0.04369417950510979,-0.1867477297782898
1771873901098068000,2.06606787109375,9.865307807922363,-0.04369417950510979,-0.16759411990642548
1771873901108074000,2.076073974609375,9.865307807922363,-0.03890577703714371,-0.1628057211637497
1771873901118080000,2.086080078125,9.870096206665039,-0.04369417950510979,-0.15322890877723694
1771873901128086000,2.0960859375,9.870096206665039,-0.03890577703714371,-0.15322890877723694
1771873901138092300,2.10609228515625,9.860519409179688,-0.04369417950510979,-0.16759411990642548
1771873901148098300,2.116098388671875,9.865307807922363,-0.04369417950510979,-0.17238251864910126
1771873901158104300,2.126104248046875,9.860519409179688,-0.04369417950510979,-0.17717093229293823
1771873901168110600,2.136110595703125,9.860519409179688,-0.04369417950510979,-0.1867477297782898
1771873901178116600,2.14611669921875,9.865307807922363,-0.048482585698366165,-0.1867477297782898
1771873901188122600,2.15612255859375,9.860519409179688,-0.03890577703714371,-0.181959331035614
1771873901198129000,2.16612890625,9.865307807922363,-0.04369417950510979,-0.16759411990642548
1771873901208135000,2.176135009765625,9.860519409179688,-0.04369417950510979,-0.16759411990642548
1771873901218141000,2.186140869140625,9.860519409179688,-0.03890577703714371,-0.15801730751991272
1771873901228147000,2.19614697265625,9.865307807922363,-0.04369417950510979,-0.1628057211637497
1771873901238153200,2.2061533203125,9.870096206665039,-0.04369417950510979,-0.181959331035614
1771873901248159200,2.2161591796875,9.860519409179688,-0.03890577703714371,-0.181959331035614
1771873901258165200,2.226165283203125,9.865307807922363,-0.048482585698366165,-0.181959331035614
1771873901268171500,2.236171630859375,9.860519409179688,-0.048482585698366165,-0.1867477297782898
1771873901278177500,2.246177490234375,9.865307807922363,-0.03411737456917763,-0.181959331035614
1771873901288183600,2.25618359375,9.860519409179688,-0.03411737456917763,-0.17238251864910126
1771873901298189800,2.26618994140625,9.865307807922363,-0.03890577703714371,-0.17717093229293823
1771873901308195800,2.27619580078125,9.870096206665039,-0.048482585698366165,-0.17717093229293823
1771873901318201900,2.286201904296875,9.865307807922363,-0.03411737456917763,-0.17238251864910126
1771873901328208000,2.296207763671875,9.865307807922363,-0.03411737456917763,-0.17238251864910126
1771873901338214100,2.306214111328125,9.865307807922363,-0.04369417950510979,-0.16759411990642548
1771873901348220200,2.31622021484375,9.865307807922363,-0.04369417950510979,-0.17238251864910126
1771873901358226200,2.32622607421875,9.865307807922363,-0.04369417950510979,-0.17238251864910126
1771873901368232400,2.336232421875,9.865307807922363,-0.04369417950510979,-0.16759411990642548
1771873901378238500,2.346238525390625,9.855731010437012,-0.04369417950510979,-0.17238251864910126
1771873901388244500,2.356244384765625,9.860519409179688,-0.04369417950510979,-0.17238251864910126
1771873901398250800,2.366250732421875,9.870096206665039,-0.048482585698366165,-0.17717093229293823
1771873901408256800,2.3762568359375,9.865307807922363,-0.04369417950510979,-0.19153612852096558
1771873901418262800,2.3862626953125,9.860519409179688,-0.03890577703714371,-0.19632454216480255
1771873901428269000,2.39626904296875,9.855731010437012,-0.04369417950510979,-0.20111294090747833
1771873901438275000,2.406275146484375,9.865307807922363,-0.03890577703714371,-0.181959331035614
1771873901448281000,2.416281005859375,9.865307807922363,-0.04369417950510979,-0.16759411990642548
1771873901458287000,2.426287109375,9.865307807922363,-0.048482585698366165,-0.14365209639072418
1771873901468293400,2.43629345703125,9.874884605407715,-0.04369417950510979,-0.13407529890537262
1771873901478299400,2.44629931640625,9.870096206665039,-0.03890577703714371,-0.1388636976480484
1771873901488305400,2.456305419921875,9.870096206665039,-0.04369417950510979,-0.15801730751991272
1771873901498311700,2.466311767578125,9.870096206665039,-0.048482585698366165,-0.17238251864910126
1771873901508317700,2.476317626953125,9.860519409179688,-0.03411737456917763,-0.1867477297782898
1771873901518323700,2.48632373046875,9.860519409179688,-0.03890577703714371,-0.19632454216480255
1771873901528330000,2.496330078125,9.865307807922363,-0.048482585698366165,-0.20111294090747833
1771873901538336000,2.5063359375,9.870096206665039,-0.048482585698366165,-0.1867477297782898
1771873901548342000,2.516342041015625,9.865307807922363,-0.04369417950510979,-0.181959331035614
1771873901558348000,2.52634814453125,9.870096206665039,-0.03890577703714371,-0.17717093229293823
1771873901568354300,2.536354248046875,9.860519409179688,-0.04369417950510979,-0.17717093229293823
1771873901578360300,2.5463603515625,9.850942611694336,-0.04369417950510979,-0.17717093229293823
1771873901588366300,2.556366455078125,9.865307807922363,-0.03890577703714371,-0.17238251864910126
1771873901598372600,2.56637255859375,9.865307807922363,-0.04369417950510979,-0.16759411990642548
1771873901608378600,2.576378662109375,9.865307807922363,-0.03890577703714371,-0.17238251864910126
1771873901618384600,2.586384521484375,9.865307807922363,-0.04369417950510979,-0.17717093229293823
1771873901628391000,2.596390869140625,9.860519409179688,-0.04369417950510979,-0.17238251864910126
1771873901638397000,2.60639697265625,9.860519409179688,-0.03411737456917763,-0.181959331035614
1771873901648403000,2.61640283203125,9.860519409179688,-0.04369417950510979,-0.1867477297782898
1771873901658409200,2.6264091796875,9.860519409179688,-0.04369417950510979,-0.1867477297782898
1771873901668415200,2.636415283203125,9.860519409179688,-0.03890577703714371,-0.181959331035614
1771873901678421200,2.646421142578125,9.865307807922363,-0.03890577703714371,-0.19153612852096558
1771873901688427300,2.65642724609375,9.865307807922363,-0.04369417950510979,-0.19153612852096558
1771873901698433500,2.66643359375,9.865307807922363,-0.03890577703714371,-0.1867477297782898
1771873901708439600,2.676439453125,9.865307807922363,-0.04369417950510979,-0.17238251864910126
1771873901718445600,2.686445556640625,9.860519409179688,-0.03890577703714371,-0.17238251864910126
1771873901728451800,2.696451904296875,9.865307807922363,-0.04369417950510979,-0.15322890877723694
1771873901738457900,2.706457763671875,9.865307807922363,-0.053270988166332245,-0.15322890877723694
1771873901748463900,2.7164638671875,9.860519409179688,-0.04369417950510979,-0.15322890877723694
1771873901758470100,2.72647021484375,9.870096206665039,-0.04369417950510979,-0.181959331035614
1771873901768476200,2.73647607421875,9.860519409179688,-0.03411737456917763,-0.19632454216480255
1771873901778482200,2.746482177734375,9.850942611694336,-0.03890577703714371,-0.19153612852096558
1771873901788488200,2.75648828125,9.855731010437012,-0.04369417950510979,-0.1867477297782898
1771873901798494500,2.766494384765625,9.870096206665039,-0.03890577703714371,-0.17717093229293823
1771873901808500500,2.77650048828125,9.860519409179688,-0.03890577703714371,-0.16759411990642548
1771873901818506500,2.786506591796875,9.865307807922363,-0.048482585698366165,-0.15322890877723694
1771873901828512800,2.7965126953125,9.870096206665039,-0.04369417950510979,-0.1628057211637497
1771873901838518800,2.806518798828125,9.860519409179688,-0.03411737456917763,-0.17717093229293823
1771873901848524800,2.81652490234375,9.865307807922363,-0.04369417950510979,-0.19632454216480255
1771873901858531000,2.826531005859375,9.860519409179688,-0.04369417950510979,-0.2059013396501541
1771873901868537000,2.836537109375,9.855731010437012,-0.03890577703714371,-0.2059013396501541
1771873901878543000,2.846543212890625,9.860519409179688,-0.048482585698366165,-0.19632454216480255
1771873901888549400,2.85654931640625,9.860519409179688,-0.04369417950510979,-0.17717093229293823
1771873901898555400,2.866555419921875,9.860519409179688,-0.04369417950510979,-0.15322890877723694
1771873901908561400,2.8765615234375,9.865307807922363,-0.053270988166332245,-0.14844051003456116
1771873901918567400,2.8865673828125,9.865307807922363,-0.04369417950510979,-0.15322890877723694
1771873901928573700,2.89657373046875,9.860519409179688,-0.03411737456917763,-0.1628057211637497
1771873901938579700,2.906579833984375,9.870096206665039,-0.04369417950510979,-0.19153612852096558
1771873901948585700,2.916585693359375,9.860519409179688,-0.04369417950510979,-0.2059013396501541
1771873901958592000,2.926592041015625,9.865307807922363,-0.03411737456917763,-0.20111294090747833
1771873901968598000,2.936597900390625,9.855731010437012,-0.03890577703714371,-0.1867477297782898
1771873901978604000,2.94660400390625,9.855731010437012,-0.04369417950510979,-0.17238251864910126
1771873901988610300,2.9566103515625,9.870096206665039,-0.04369417950510979,-0.15322890877723694
1771873901998616300,2.9666162109375,9.870096206665039,-0.03890577703714371,-0.16759411990642548
1771873902008622300,2.976622314453125,9.860519409179688,-0.03411737456917763,-0.16759411990642548
1771873902018628400,2.98662841796875,9.860519409179688,-0.03890577703714371,-0.17717093229293823
1771873902028634600,2.996634521484375,9.850942611694336,-0.03411737456917763,-0.1867477297782898
1771873902038640600,3.006640625,9.855731010437012,-0.04369417950510979,-0.17717093229293823
1771873902048646700,3.016646728515625,9.865307807922363,-0.04369417950510979,-0.16759411990642548
1771873902058653000,3.02665283203125,9.870096206665039,-0.048482585698366165,-0.17238251864910126
1771873902068659000,3.036658935546875,9.870096206665039,-0.03890577703714371,-0.17717093229293823
1771873902078665000,3.0466650390625,9.860519409179688,-0.03890577703714371,-0.17238251864910126
1771873902088671200,3.056671142578125,9.860519409179688,-0.03411737456917763,-0.1628057211637497
1771873902098677200,3.06667724609375,9.860519409179688,-0.03890577703714371,-0.17238251864910126
1771873902108683300,3.076683349609375,9.870096206665039,-0.04369417950510979,-0.17238251864910126
1771873902118689300,3.086689208984375,9.865307807922363,-0.048482585698366165,-0.17717093229293823
1771873902128695600,3.096695556640625,9.860519409179688,-0.03890577703714371,-0.17717093229293823
1771873902138701600,3.10670166015625,9.855731010437012,-0.04369417950510979,-0.181959331035614
1771873902148707600,3.11670751953125,9.865307807922363,-0.03890577703714371,-0.16759411990642548
1771873902158713900,3.1267138671875,9.865307807922363,-0.03411737456917763,-0.1628057211637497
1771873902168720000,3.136719970703125,9.865307807922363,-0.048482585698366165,-0.1628057211637497
1771873902178726000,3.146725830078125,9.870096206665039,-0.04369417950510979,-0.15322890877723694
1771873902188732200,3.156732177734375,9.865307807922363,-0.03890577703714371,-0.15801730751991272
1771873902198738200,3.16673828125,9.860519409179688,-0.04369417950510979,-0.15801730751991272
1771873902208744200,3.176744140625,9.865307807922363,-0.048482585698366165,-0.17717093229293823
1771873902218750200,3.186750244140625,9.865307807922363,-0.048482585698366165,-0.19153612852096558
1771873902228756200,3.196756103515625,9.865307807922363,-0.03890577703714371,-0.20111294090747833
1771873902238762200,3.20676220703125,9.865307807922363,-0.03890577703714371,-0.20111294090747833
1771873902248768300,3.216768310546875,9.860519409179688,-0.03411737456917763,-0.19632454216480255
1771873902258774500,3.2267744140625,9.860519409179688,-0.04369417950510979,-0.17717093229293823
1771873902268780500,3.236780517578125,9.865307807922363,-0.04369417950510979,-0.1628057211637497
1771873902278786600,3.24678662109375,9.865307807922363,-0.03411737456917763,-0.14844051003456116
1771873902288792600,3.25679248046875,9.860519409179688,-0.048482585698366165,-0.14844051003456116
1771873902298798600,3.266798583984375,9.855731010437012,-0.03890577703714371,-0.16759411990642548
1771873902308804600,3.2768046875,9.860519409179688,-0.03890577703714371,-0.17717093229293823
1771873902318810600,3.286810546875,9.855731010437012,-0.03411737456917763,-0.19153612852096558
1771873902328816600,3.296816650390625,9.850942611694336,-0.03890577703714371,-0.19153612852096558
1771873902338822700,3.30682275390625,9.855731010437012,-0.03890577703714371,-0.19632454216480255
1771873902348828700,3.31682861328125,9.860519409179688,-0.03890577703714371,-0.19153612852096558
1771873902358835000,3.3268349609375,9.865307807922363,-0.03411737456917763,-0.17717093229293823
1771873902368841000,3.336841064453125,9.865307807922363,-0.03890577703714371,-0.17717093229293823
1771873902378847000,3.346846923828125,9.865307807922363,-0.04369417950510979,-0.16759411990642548
1771873902388853000,3.35685302734375,9.865307807922363,-0.03890577703714371,-0.17238251864910126
1771873902398859000,3.36685888671875,9.865307807922363,-0.04369417950510979,-0.17717093229293823
1771873902408865000,3.376864990234375,9.865307807922363,-0.03890577703714371,-0.181959331035614
1771873902418871000,3.38687109375,9.860519409179688,-0.03890577703714371,-0.181959331035614
1771873902428877000,3.396876953125,9.860519409179688,-0.04369417950510979,-0.16759411990642548
1771873902438883000,3.406883056640625,9.870096206665039,-0.04369417950510979,-0.16759411990642548
1771873902448889000,3.41688916015625,9.865307807922363,-0.04369417950510979,-0.17238251864910126
1771873902458895400,3.426895263671875,9.870096206665039,-0.04369417950510979,-0.1628057211637497
1771873902468901400,3.4369013671875,9.860519409179688,-0.03890577703714371,-0.17238251864910126
1771873902478907400,3.446907470703125,9.860519409179688,-0.048482585698366165,-0.17717093229293823
1771873902488913400,3.456913330078125,9.870096206665039,-0.03890577703714371,-0.17717093229293823
1771873902498919400,3.46691943359375,9.860519409179688,-0.04369417950510979,-0.17238251864910126
1771873902508925700,3.47692578125,9.855731010437012,-0.04369417950510979,-0.1628057211637497
1771873902518931700,3.486931640625,9.860519409179688,-0.03411737456917763,-0.16759411990642548
1771873902528937700,3.496937744140625,9.865307807922363,-0.03890577703714371,-0.16759411990642548
1771873902538944000,3.506944091796875,9.874884605407715,-0.04369417950510979,-0.17238251864910126
1771873902548950000,3.516949951171875,9.865307807922363,-0.03890577703714371,-0.17717093229293823
1771873902558956000,3.5269560546875,9.870096206665039,-0.04369417950510979,-0.19153612852096558
1771873902568962000,3.536962158203125,9.860519409179688,-0.04369417950510979,-0.181959331035614
1771873902578968300,3.54696826171875,9.860519409179688,-0.04369417950510979,-0.1867477297782898
1771873902588974300,3.556974365234375,9.860519409179688,-0.04369417950510979,-0.1867477297782898
1771873902598980400,3.56698046875,9.860519409179688,-0.03890577703714371,-0.1867477297782898
1771873902608986600,3.576986572265625,9.860519409179688,-0.03411737456917763,-0.181959331035614
1771873902618992600,3.58699267578125,9.860519409179688,-0.03890577703714371,-0.16759411990642548
1771873902628998700,3.59699853515625,9.865307807922363,-0.03890577703714371,-0.1628057211637497
1771873902639005000,3.6070048828125,9.865307807922363,-0.04369417950510979,-0.16759411990642548
1771873902649011000,3.617010986328125,9.855731010437012,-0.03890577703714371,-0.16759411990642548
1771873902659017000,3.627016845703125,9.865307807922363,-0.048482585698366165,-0.17238251864910126
1771873902669023000,3.63702294921875,9.860519409179688,-0.04369417950510979,-0.181959331035614
1771873902679029200,3.647029296875,9.860519409179688,-0.04369417950510979,-0.1867477297782898
1771873902689035300,3.65703515625,9.855731010437012,-0.048482585698366165,-0.17717093229293823
1771873902709047600,3.677047607421875,9.860519409179688,-0.048482585698366165,-0.17717093229293823
1771873902719053600,3.687053466796875,9.865307807922363,-0.03411737456917763,-0.17238251864910126
1771873902729059600,3.6970595703125,9.870096206665039,-0.03890577703714371,-0.1867477297782898
1771873902739065900,3.70706591796875,9.860519409179688,-0.03890577703714371,-0.19153612852096558
1771873902749072000,3.71707177734375,9.865307807922363,-0.04369417950510979,-0.181959331035614
1771873902759078000,3.727077880859375,9.860519409179688,-0.04369417950510979,-0.17717093229293823
1771873902769084200,3.737084228515625,9.855731010437012,-0.04369417950510979,-0.1628057211637497
1771873902779090200,3.747090087890625,9.870096206665039,-0.04369417950510979,-0.15322890877723694
1771873902789096200,3.75709619140625,9.870096206665039,-0.04369417950510979,-0.14844051003456116
1771873902799102200,3.767102294921875,9.870096206665039,-0.04369417950510979,-0.1628057211637497
1771873902809108500,3.7771083984375,9.860519409179688,-0.048482585698366165,-0.17717093229293823
1771873902819114500,3.787114501953125,9.860519409179688,-0.03890577703714371,-0.181959331035614
1771873902829120500,3.79712060546875,9.865307807922363,-0.04369417950510979,-0.20111294090747833
1771873902839126800,3.807126708984375,9.850942611694336,-0.04369417950510979,-0.20111294090747833
1771873902849132800,3.8171328125,9.855731010437012,-0.04369417950510979,-0.19632454216480255
1771873902859138800,3.827138916015625,9.860519409179688,-0.03890577703714371,-0.1867477297782898
1771873902869145000,3.83714501953125,9.865307807922363,-0.04369417950510979,-0.17238251864910126
1771873902879151000,3.847151123046875,9.865307807922363,-0.03890577703714371,-0.15322890877723694
1771873902889157000,3.8571572265625,9.874884605407715,-0.04369417950510979,-0.14365209639072418
1771873902899163100,3.8671630859375,9.870096206665039,-0.04369417950510979,-0.14844051003456116
1771873902909169400,3.87716943359375,9.865307807922363,-0.04369417950510979,-0.17238251864910126
1771873902919175400,3.887175537109375,9.870096206665039,-0.04369417950510979,-0.17238251864910126
1771873902929181400,3.897181396484375,9.865307807922363,-0.04369417950510979,-0.19153612852096558
1771873902939187700,3.907187744140625,9.860519409179688,-0.03411737456917763,-0.19632454216480255
1771873902949193700,3.91719384765625,9.865307807922363,-0.04369417950510979,-0.19632454216480255
1771873902959199700,3.92719970703125,9.855731010437012,-0.03890577703714371,-0.181959331035614
1771873902969206000,3.9372060546875,9.865307807922363,-0.04369417950510979,-0.16759411990642548
1771873902979212000,3.9472119140625,9.870096206665039,-0.04369417950510979,-0.14365209639072418
1771873902989218000,3.957218017578125,9.865307807922363,-0.048482585698366165,-0.15322890877723694
1771873902999224300,3.967224365234375,9.865307807922363,-0.03411737456917763,-0.16759411990642548
1771873903009230300,3.977230224609375,9.865307807922363,-0.03890577703714371,-0.17238251864910126
1771873903019236400,3.987236328125,9.860519409179688,-0.048482585698366165,-0.181959331035614
1771873903029242400,3.997242431640625,9.860519409179688,-0.0293289702385664,-0.19153612852096558
1771873903039248600,4.00724853515625,9.855731010437012,-0.04369417950510979,-0.19153612852096558
1771873903049254700,4.017254638671875,9.860519409179688,-0.04369417950510979,-0.19153612852096558
1771873903059260700,4.0272607421875,9.860519409179688,-0.03411737456917763,-0.19153612852096558
1771873903069267000,4.037266845703125,9.865307807922363,-0.03890577703714371,-0.1867477297782898
1771873903079273000,4.04727294921875,9.860519409179688,-0.03890577703714371,-0.17238251864910126
1771873903089279000,4.057279052734375,9.860519409179688,-0.04369417950510979,-0.1628057211637497
1771873903099285200,4.06728515625,9.865307807922363,-0.03411737456917763,-0.15322890877723694
1771873903109291300,4.077291259765625,9.865307807922363,-0.048482585698366165,-0.15322890877723694
1771873903119297300,4.08729736328125,9.870096206665039,-0.04369417950510979,-0.15801730751991272
1771873903129303300,4.09730322265625,9.865307807922363,-0.03890577703714371,-0.17238251864910126
1771873903139309600,4.1073095703125,9.865307807922363,-0.04369417950510979,-0.17717093229293823
1771873903149315600,4.117315673828125,9.860519409179688,-0.03890577703714371,-0.1867477297782898
1771873903159321600,4.127321533203125,9.865307807922363,-0.03890577703714371,-0.181959331035614
1771873903169327900,4.137327880859375,9.870096206665039,-0.04369417950510979,-0.1867477297782898
1771873903179334000,4.147333984375,9.855731010437012,-0.03890577703714371,-0.181959331035614
1771873903189340000,4.15733984375,9.860519409179688,-0.053270988166332245,-0.1867477297782898
1771873903199346200,4.16734619140625,9.865307807922363,-0.04369417950510979,-0.1867477297782898
1771873903209352200,4.177352294921875,9.865307807922363,-0.03890577703714371,-0.17717093229293823
1771873903219358200,4.187358154296875,9.860519409179688,-0.04369417950510979,-0.17717093229293823
1771873903229364200,4.1973642578125,9.860519409179688,-0.03890577703714371,-0.16759411990642548
1771873903239370500,4.20737060546875,9.870096206665039,-0.04369417950510979,-0.1628057211637497
1771873903249376500,4.21737646484375,9.865307807922363,-0.03890577703714371,-0.16759411990642548
1771873903259382500,4.227382568359375,9.874884605407715,-0.04369417950510979,-0.17238251864910126
1771873903269388800,4.237388916015625,9.870096206665039,-0.048482585698366165,-0.16759411990642548
1771873903279394800,4.247394775390625,9.855731010437012,-0.03890577703714371,-0.17717093229293823
1771873903289400800,4.25740087890625,9.865307807922363,-0.04369417950510979,-0.181959331035614
1771873903299407000,4.267406982421875,9.860519409179688,-0.03890577703714371,-0.19153612852096558
1771873903309413000,4.2774130859375,9.855731010437012,-0.03411737456917763,-0.181959331035614
1771873903319419100,4.287419189453125,9.860519409179688,-0.04369417950510979,-0.181959331035614
1771873903329425400,4.29742529296875,9.865307807922363,-0.048482585698366165,-0.17238251864910126
1771873903339431400,4.307431396484375,9.865307807922363,-0.048482585698366165,-0.17238251864910126
1771873903349437400,4.3174375,9.865307807922363,-0.03890577703714371,-0.16759411990642548
1771873903359443500,4.327443359375,9.865307807922363,-0.04369417950510979,-0.17717093229293823
1771873903369449700,4.33744970703125,9.874884605407715,-0.04369417950510979,-0.17717093229293823
1771873903379455700,4.347455810546875,9.860519409179688,-0.04369417950510979,-0.181959331035614
1771873903389461800,4.357461669921875,9.855731010437012,-0.03890577703714371,-0.17717093229293823
1771873903399468000,4.367468017578125,9.860519409179688,-0.04369417950510979,-0.17717093229293823
1771873903409474000,4.37747412109375,9.860519409179688,-0.04369417950510979,-0.17717093229293823
1771873903419480000,4.38747998046875,9.855731010437012,-0.03890577703714371,-0.181959331035614
1771873903429486300,4.397486328125,9.865307807922363,-0.03890577703714371,-0.1628057211637497
1771873903449498400,4.417498291015625,9.870096206665039,-0.04369417950510979,-0.1628057211637497
1771873903459504400,4.42750439453125,9.860519409179688,-0.03890577703714371,-0.17238251864910126
1771873903469510700,4.4375107421875,9.865307807922363,-0.03411737456917763,-0.17238251864910126
1771873903489522700,4.457522705078125,9.860519409179688,-0.04369417950510979,-0.1867477297782898
1771873903499529000,4.467529052734375,9.860519409179688,-0.04369417950510979,-0.19153612852096558
1771873903509535000,4.477534912109375,9.855731010437012,-0.03411737456917763,-0.181959331035614
1771873903519541000,4.487541015625,9.865307807922363,-0.04369417950510979,-0.17238251864910126
1771873903529547300,4.49754736328125,9.865307807922363,-0.048482585698366165,-0.1628057211637497
1771873903539553300,4.50755322265625,9.865307807922363,-0.048482585698366165,-0.16759411990642548
1771873903549559300,4.517559326171875,9.870096206665039,-0.03890577703714371,-0.1867477297782898
1771873903559565600,4.527565673828125,9.860519409179688,-0.04369417950510979,-0.19153612852096558
1771873903569571600,4.537571533203125,9.860519409179688,-0.03890577703714371,-0.20111294090747833
1771873903579577600,4.54757763671875,9.855731010437012,-0.04369417950510979,-0.20111294090747833
1771873903589583600,4.55758349609375,9.855731010437012,-0.04369417950510979,-0.17717093229293823
1771873903599590000,4.56758984375,9.855731010437012,-0.03890577703714371,-0.15801730751991272
1771873903609596000,4.577595947265625,9.870096206665039,-0.048482585698366165,-0.14365209639072418
1771873903619602000,4.587601806640625,9.874884605407715,-0.04369417950510979,-0.14365209639072418
1771873903629608200,4.597608154296875,9.870096206665039,-0.04369417950510979,-0.1628057211637497
1771873903639614200,4.6076142578125,9.860519409179688,-0.03411737456917763,-0.181959331035614
1771873903649620200,4.6176201171875,9.855731010437012,-0.03890577703714371,-0.19153612852096558
1771873903659626500,4.62762646484375,9.865307807922363,-0.03890577703714371,-0.19632454216480255
1771873903669632500,4.637632568359375,9.855731010437012,-0.048482585698366165,-0.19632454216480255
1771873903679638500,4.647638427734375,9.865307807922363,-0.04369417950510979,-0.17717093229293823
1771873903689644500,4.65764453125,9.865307807922363,-0.03890577703714371,-0.15801730751991272
1771873903699650800,4.66765087890625,9.870096206665039,-0.048482585698366165,-0.16759411990642548
1771873903709656800,4.67765673828125,9.865307807922363,-0.03411737456917763,-0.17238251864910126
1771873903719662800,4.687662841796875,9.860519409179688,-0.03890577703714371,-0.17238251864910126
1771873903729669000,4.697669189453125,9.850942611694336,-0.048482585698366165,-0.181959331035614
1771873903739675100,4.707675048828125,9.860519409179688,-0.04369417950510979,-0.17717093229293823
1771873903749681200,4.71768115234375,9.865307807922363,-0.03890577703714371,-0.17238251864910126
1771873903759687400,4.7276875,9.865307807922363,-0.04369417950510979,-0.16759411990642548
1771873903769693400,4.737693359375,9.860519409179688,-0.048482585698366165,-0.17238251864910126
1771873903779699500,4.747699462890625,9.860519409179688,-0.03890577703714371,-0.1628057211637497
1771873903789705700,4.757705810546875,9.855731010437012,-0.04369417950510979,-0.1628057211637497
1771873903799711700,4.767711669921875,9.860519409179688,-0.048482585698366165,-0.1628057211637497
1771873903809717800,4.7777177734375,9.860519409179688,-0.03890577703714371,-0.17238251864910126
1771873903819723800,4.787723876953125,9.865307807922363,-0.03411737456917763,-0.1867477297782898
1771873903829730000,4.79772998046875,9.860519409179688,-0.04369417950510979,-0.19632454216480255
1771873903839736000,4.807736083984375,9.865307807922363,-0.048482585698366165,-0.22026655077934265
1771873903849742000,4.8177421875,9.855731010437012,-0.03411737456917763,-0.2106897532939911
1771873903859748400,4.827748291015625,9.860519409179688,-0.03890577703714371,-0.20111294090747833
1771873903869754400,4.83775439453125,9.860519409179688,-0.04369417950510979,-0.16759411990642548
1771873903879760400,4.847760498046875,9.865307807922363,-0.048482585698366165,-0.14365209639072418
1771873903889766700,4.8577666015625,9.870096206665039,-0.048482585698366165,-0.12449848651885986
1771873903899772700,4.867772705078125,9.874884605407715,-0.04369417950510979,-0.14844051003456116
1771873903909778700,4.87777880859375,9.874884605407715,-0.03890577703714371,-0.19632454216480255
1771873903919784700,4.88778466796875,9.855731010437012,-0.048482585698366165,-0.2298433631658554
1771873903929791000,4.897791015625,9.841365814208984,-0.03890577703714371,-0.2346317619085312
1771873903939797000,4.907796875,9.84615421295166,-0.03411737456917763,-0.20111294090747833
1771873903949803000,4.917802978515625,9.850942611694336,-0.04369417950510979,-0.14844051003456116
1771873903959809300,4.927809326171875,9.870096206665039,-0.048482585698366165,-0.11971008777618408
1771873903969815300,4.937815185546875,9.87967300415039,-0.053270988166332245,-0.10055647045373917
1771873903979821300,4.9478212890625,9.874884605407715,-0.04369417950510979,-0.12449848651885986
1771873903989827600,4.95782763671875,9.870096206665039,-0.04369417950510979,-0.14365209639072418
1771873903999833600,4.96783349609375,9.855731010437012,-0.053270988166332245,-0.17717093229293823
1771873904009839600,4.977839599609375,9.850942611694336,-0.03890577703714371,-0.2106897532939911
1771873904019845600,4.987845703125,9.855731010437012,-0.04369417950510979,-0.2298433631658554
1771873904029852000,4.997851806640625,9.860519409179688,-0.04369417950510979,-0.2298433631658554
1771873904039858000,5.00785791015625,9.855731010437012,-0.03890577703714371,-0.2059013396501541
1771873904049864000,5.017864013671875,9.865307807922363,-0.04369417950510979,-0.181959331035614
1771873904059870200,5.0278701171875,9.855731010437012,-0.04369417950510979,-0.16759411990642548
1771873904069876200,5.037876220703125,9.865307807922363,-0.03890577703714371,-0.15801730751991272
1771873904079882200,5.04788232421875,9.870096206665039,-0.048482585698366165,-0.14844051003456116
1771873904089888500,5.057888427734375,9.865307807922363,-0.04369417950510979,-0.1388636976480484
1771873904099894500,5.06789453125,9.855731010437012,-0.048482585698366165,-0.13407529890537262
1771873904109900500,5.077900634765625,9.874884605407715,-0.03890577703714371,-0.15801730751991272
1771873904119906800,5.08790673828125,9.870096206665039,-0.03890577703714371,-0.17238251864910126
1771873904129912800,5.097912841796875,9.865307807922363,-0.03890577703714371,-0.2106897532939911
1771873904139918800,5.1079189453125,9.855731010437012,-0.03411737456917763,-0.21547815203666687
1771873904149924900,5.1179248046875,9.850942611694336,-0.03890577703714371,-0.21547815203666687
1771873904159931100,5.12793115234375,9.850942611694336,-0.04369417950510979,-0.19632454216480255
1771873904169937200,5.137937255859375,9.855731010437012,-0.04369417950510979,-0.1628057211637497
1771873904179943200,5.147943115234375,9.870096206665039,-0.03890577703714371,-0.12928688526153564
1771873904189949400,5.157949462890625,9.874884605407715,-0.04369417950510979,-0.13407529890537262
1771873904199955500,5.16795556640625,9.874884605407715,-0.03411737456917763,-0.14365209639072418
1771873904209961500,5.17796142578125,9.860519409179688,-0.048482585698366165,-0.16759411990642548
1771873904219967700,5.1879677734375,9.860519409179688,-0.04369417950510979,-0.1867477297782898
1771873904229973800,5.197973876953125,9.850942611694336,-0.03890577703714371,-0.20111294090747833
1771873904239979800,5.207979736328125,9.855731010437012,-0.048482585698366165,-0.20111294090747833
1771873904249985800,5.21798583984375,9.865307807922363,-0.048482585698366165,-0.1867477297782898
1771873904259992000,5.227991943359375,9.865307807922363,-0.03890577703714371,-0.1867477297782898
1771873904269998000,5.237998046875,9.860519409179688,-0.04369417950510979,-0.19153612852096558
1771873904280004000,5.248004150390625,9.860519409179688,-0.03890577703714371,-0.1867477297782898
1771873904290010400,5.25801025390625,9.850942611694336,-0.03890577703714371,-0.181959331035614
1771873904300016400,5.268016357421875,9.850942611694336,-0.04369417950510979,-0.17238251864910126
1771873904310022400,5.2780224609375,9.860519409179688,-0.04369417950510979,-0.14844051003456116
1771873904320028700,5.288028564453125,9.865307807922363,-0.048482585698366165,-0.13407529890537262
1771873904330034700,5.29803466796875,9.865307807922363,-0.04369417950510979,-0.1388636976480484
1771873904340040700,5.308040771484375,9.865307807922363,-0.04369417950510979,-0.14844051003456116
1771873904350047000,5.318046875,9.865307807922363,-0.04369417950510979,-0.17717093229293823
1771873904360053000,5.328052978515625,9.860519409179688,-0.03411737456917763,-0.20111294090747833
1771873904370059000,5.33805908203125,9.865307807922363,-0.03890577703714371,-0.2106897532939911
1771873904380065000,5.34806494140625,9.850942611694336,-0.048482585698366165,-0.21547815203666687
1771873904390071300,5.3580712890625,9.860519409179688,-0.04369417950510979,-0.19632454216480255
1771873904400077300,5.368077392578125,9.860519409179688,-0.04369417950510979,-0.19153612852096558
1771873904410083300,5.378083251953125,9.860519409179688,-0.04369417950510979,-0.1628057211637497
1771873904420089600,5.388089599609375,9.870096206665039,-0.03411737456917763,-0.1628057211637497
1771873904430095600,5.398095703125,9.870096206665039,-0.03890577703714371,-0.15801730751991272
1771873904440101600,5.4081015625,9.870096206665039,-0.03890577703714371,-0.15801730751991272
1771873904450108000,5.41810791015625,9.865307807922363,-0.03411737456917763,-0.1628057211637497
1771873904460114000,5.428114013671875,9.860519409179688,-0.04369417950510979,-0.17238251864910126
1771873904470120000,5.438119873046875,9.865307807922363,-0.04369417950510979,-0.17238251864910126
1771873904480126000,5.4481259765625,9.855731010437012,-0.04369417950510979,-0.17238251864910126
1771873904490132200,5.45813232421875,9.860519409179688,-0.03890577703714371,-0.1867477297782898
1771873904500138200,5.46813818359375,9.855731010437012,-0.04369417950510979,-0.19632454216480255
1771873904510144300,5.478144287109375,9.860519409179688,-0.03890577703714371,-0.19153612852096558
1771873904520150500,5.488150634765625,9.860519409179688,-0.03890577703714371,-0.19632454216480255
1771873904530156500,5.498156494140625,9.860519409179688,-0.03890577703714371,-0.1867477297782898
1771873904540162600,5.50816259765625,9.850942611694336,-0.03890577703714371,-0.17238251864910126
1771873904550168800,5.5181689453125,9.860519409179688,-0.03890577703714371,-0.17238251864910126
1771873904560174800,5.5281748046875,9.865307807922363,-0.03890577703714371,-0.1628057211637497
1771873904570180900,5.538180908203125,9.865307807922363,-0.04369417950510979,-0.1628057211637497
1771873904580187100,5.548187255859375,9.865307807922363,-0.03890577703714371,-0.17238251864910126
1771873904590193200,5.558193115234375,9.865307807922363,-0.04369417950510979,-0.1867477297782898
1771873904600199200,5.56819921875,9.860519409179688,-0.03411737456917763,-0.1867477297782898
1771873904610205200,5.578205078125,9.860519409179688,-0.03890577703714371,-0.181959331035614
1771873904620211500,5.58821142578125,9.865307807922363,-0.03890577703714371,-0.181959331035614
1771873904630217500,5.598217529296875,9.855731010437012,-0.04369417950510979,-0.1628057211637497
1771873904640223500,5.608223388671875,9.865307807922363,-0.048482585698366165,-0.15322890877723694
1771873904650229800,5.618229736328125,9.860519409179688,-0.048482585698366165,-0.15801730751991272
1771873904660235800,5.62823583984375,9.865307807922363,-0.04369417950510979,-0.16759411990642548
1771873904670241800,5.63824169921875,9.865307807922363,-0.04369417950510979,-0.17717093229293823
1771873904680248000,5.648248046875,9.860519409179688,-0.03890577703714371,-0.1867477297782898
1771873904690254000,5.658254150390625,9.860519409179688,-0.03890577703714371,-0.19632454216480255
1771873904700260000,5.668260009765625,9.860519409179688,-0.03890577703714371,-0.19632454216480255
1771873904710266000,5.67826611328125,9.860519409179688,-0.03890577703714371,-0.19632454216480255
1771873904720272400,5.6882724609375,9.860519409179688,-0.03890577703714371,-0.1867477297782898
1771873904730278400,5.6982783203125,9.860519409179688,-0.048482585698366165,-0.17717093229293823
1771873904740284400,5.708284423828125,9.860519409179688,-0.04369417950510979,-0.16759411990642548
1771873904750290700,5.718290771484375,9.860519409179688,-0.03890577703714371,-0.17238251864910126
1771873904760296700,5.728296630859375,9.855731010437012,-0.04369417950510979,-0.16759411990642548
1771873904770303000,5.738302978515625,9.855731010437012,-0.04369417950510979,-0.15801730751991272
1771873904780309000,5.74830908203125,9.850942611694336,-0.04369417950510979,-0.1628057211637497
1771873904790315300,5.758315185546875,9.855731010437012,-0.03411737456917763,-0.1628057211637497
1771873904800321300,5.7683212890625,9.870096206665039,-0.04369417950510979,-0.17238251864910126
1771873904810327600,5.77832763671875,9.870096206665039,-0.03890577703714371,-0.1867477297782898
1771873904820333600,5.78833349609375,9.860519409179688,-0.03890577703714371,-0.2059013396501541
1771873904830339800,5.79833984375,9.860519409179688,-0.03890577703714371,-0.2059013396501541
1771873904840345900,5.808345947265625,9.855731010437012,-0.048482585698366165,-0.20111294090747833
1771873904850352000,5.81835205078125,9.860519409179688,-0.04369417950510979,-0.1867477297782898
1771873904860358100,5.828358154296875,9.870096206665039,-0.04369417950510979,-0.17717093229293823
1771873904870364400,5.838364501953125,9.870096206665039,-0.04369417950510979,-0.16759411990642548
1771873904880370400,5.848370361328125,9.865307807922363,-0.04369417950510979,-0.15322890877723694
1771873904890376700,5.858376708984375,9.860519409179688,-0.04369417950510979,-0.15322890877723694
1771873904900382700,5.8683828125,9.860519409179688,-0.03890577703714371,-0.14365209639072418
1771873904910389000,5.878388916015625,9.870096206665039,-0.04369417950510979,-0.15322890877723694
1771873904920395000,5.88839501953125,9.865307807922363,-0.04369417950510979,-0.17717093229293823
1771873904930401300,5.8984013671875,9.865307807922363,-0.03890577703714371,-0.2059013396501541
1771873904940407300,5.9084072265625,9.860519409179688,-0.03411737456917763,-0.22505496442317963
1771873904950413600,5.91841357421875,9.850942611694336,-0.03411737456917763,-0.2298433631658554
1771873904960419600,5.928419677734375,9.850942611694336,-0.03890577703714371,-0.20111294090747833
1771873904970425900,5.93842578125,9.850942611694336,-0.03890577703714371,-0.17238251864910126
1771873904980432000,5.948431884765625,9.860519409179688,-0.048482585698366165,-0.14365209639072418
1771873904990438100,5.958438232421875,9.874884605407715,-0.048482585698366165,-0.11971008777618408
1771873905000444200,5.968444091796875,9.874884605407715,-0.048482585698366165,-0.11971008777618408
1771873905010450400,5.978450439453125,9.874884605407715,-0.04369417950510979,-0.14365209639072418
1771873905020456400,5.98845654296875,9.870096206665039,-0.03411737456917763,-0.17238251864910126
1771873905030462700,5.998462646484375,9.860519409179688,-0.04369417950510979,-0.19153612852096558
1771873905040468700,6.00846875,9.860519409179688,-0.04369417950510979,-0.20111294090747833
1771873905050475000,6.01847509765625,9.855731010437012,-0.03890577703714371,-0.2106897532939911
1771873905060481000,6.02848095703125,9.870096206665039,-0.03411737456917763,-0.2059013396501541
1771873905070487000,6.038487060546875,9.865307807922363,-0.04369417950510979,-0.19153612852096558
1771873905080493300,6.048493408203125,9.860519409179688,-0.04369417950510979,-0.17717093229293823
1771873905090499300,6.058499267578125,9.855731010437012,-0.03890577703714371,-0.16759411990642548
1771873905100505300,6.06850537109375,9.860519409179688,-0.04369417950510979,-0.14844051003456116
1771873905110511600,6.07851171875,9.865307807922363,-0.04369417950510979,-0.15322890877723694
1771873905120517600,6.088517578125,9.860519409179688,-0.048482585698366165,-0.15801730751991272
1771873905130523600,6.098523681640625,9.870096206665039,-0.04369417950510979,-0.17717093229293823
1771873905140529700,6.10852978515625,9.855731010437012,-0.04369417950510979,-0.1867477297782898
1771873905150536000,6.118535888671875,9.850942611694336,-0.03890577703714371,-0.19632454216480255
1771873905160542000,6.1285419921875,9.860519409179688,-0.04369417950510979,-0.19632454216480255
1771873905170548000,6.1385478515625,9.855731010437012,-0.03890577703714371,-0.19153612852096558
1771873905180554200,6.14855419921875,9.865307807922363,-0.04369417950510979,-0.17717093229293823
1771873905190560300,6.158560302734375,9.874884605407715,-0.048482585698366165,-0.15322890877723694
1771873905200566300,6.168566162109375,9.870096206665039,-0.03890577703714371,-0.14365209639072418
1771873905210572500,6.178572509765625,9.870096206665039,-0.03890577703714371,-0.14844051003456116
1771873905220578600,6.18857861328125,9.870096206665039,-0.048482585698366165,-0.16759411990642548
1771873905230584600,6.19858447265625,9.865307807922363,-0.048482585698366165,-0.17717093229293823
1771873905240590600,6.208590576171875,9.865307807922363,-0.04369417950510979,-0.20111294090747833
1771873905250596900,6.218596923828125,9.855731010437012,-0.03411737456917763,-0.2059013396501541
1771873905260603000,6.228602783203125,9.860519409179688,-0.03890577703714371,-0.20111294090747833
1771873905270609000,6.23860888671875,9.860519409179688,-0.048482585698366165,-0.19153612852096558
1771873905280615200,6.248615234375,9.865307807922363,-0.04369417950510979,-0.181959331035614
1771873905290621200,6.25862109375,9.865307807922363,-0.04369417950510979,-0.16759411990642548
1771873905300627200,6.268627197265625,9.865307807922363,-0.03890577703714371,-0.17238251864910126
1771873905310633500,6.278633544921875,9.860519409179688,-0.03890577703714371,-0.16759411990642548
1771873905320639500,6.288639404296875,9.860519409179688,-0.04369417950510979,-0.15801730751991272
1771873905330645500,6.2986455078125,9.855731010437012,-0.04369417950510979,-0.1628057211637497
1771873905340651500,6.308651611328125,9.860519409179688,-0.04369417950510979,-0.15801730751991272
1771873905350657800,6.31865771484375,9.860519409179688,-0.04369417950510979,-0.17238251864910126
1771873905360663800,6.328663818359375,9.865307807922363,-0.048482585698366165,-0.17238251864910126
1771873905370669800,6.338669921875,9.865307807922363,-0.03890577703714371,-0.19632454216480255
1771873905380676000,6.348676025390625,9.860519409179688,-0.03890577703714371,-0.19153612852096558
1771873905390682000,6.35868212890625,9.860519409179688,-0.03890577703714371,-0.1867477297782898
1771873905400688000,6.368688232421875,9.860519409179688,-0.03411737456917763,-0.17717093229293823
1771873905410694400,6.3786943359375,9.860519409179688,-0.04369417950510979,-0.15322890877723694
1771873905420700400,6.388700439453125,9.870096206665039,-0.053270988166332245,-0.15322890877723694
1771873905430706400,6.39870654296875,9.860519409179688,-0.03890577703714371,-0.15801730751991272
1771873905440712700,6.408712646484375,9.865307807922363,-0.03890577703714371,-0.17717093229293823
1771873905450718700,6.41871875,9.870096206665039,-0.03411737456917763,-0.1867477297782898
1771873905460724700,6.428724853515625,9.865307807922363,-0.04369417950510979,-0.20111294090747833
1771873905470730800,6.438730712890625,9.860519409179688,-0.03890577703714371,-0.20111294090747833
1771873905480737000,6.448737060546875,9.865307807922363,-0.03890577703714371,-0.19153612852096558
1771873905490743000,6.458742919921875,9.865307807922363,-0.03411737456917763,-0.181959331035614
1771873905500749000,6.4687490234375,9.87967300415039,-0.04369417950510979,-0.17717093229293823
1771873905510755300,6.47875537109375,9.865307807922363,-0.03890577703714371,-0.1628057211637497
1771873905520761300,6.48876123046875,9.860519409179688,-0.03890577703714371,-0.15801730751991272
1771873905530767400,6.498767333984375,9.870096206665039,-0.03890577703714371,-0.16759411990642548
1771873905540773600,6.508773681640625,9.870096206665039,-0.048482585698366165,-0.17238251864910126
1771873905550779600,6.518779541015625,9.870096206665039,-0.03890577703714371,-0.17717093229293823
1771873905560785700,6.52878564453125,9.870096206665039,-0.03890577703714371,-0.1628057211637497
1771873905570791700,6.538791748046875,9.865307807922363,-0.04369417950510979,-0.1628057211637497
1771873905580798000,6.5487978515625,9.865307807922363,-0.03890577703714371,-0.1628057211637497
1771873905590804000,6.558803955078125,9.874884605407715,-0.04369417950510979,-0.17717093229293823
1771873905600810000,6.56881005859375,9.865307807922363,-0.03890577703714371,-0.181959331035614
1771873905610816300,6.578816162109375,9.865307807922363,-0.04369417950510979,-0.19153612852096558
1771873905620822300,6.588822265625,9.855731010437012,-0.04369417950510979,-0.19632454216480255
1771873905630828300,6.598828369140625,9.860519409179688,-0.03411737456917763,-0.19153612852096558
1771873905650840600,6.618840576171875,9.860519409179688,-0.03890577703714371,-0.17238251864910126
1771873905660846600,6.6288466796875,9.870096206665039,-0.03411737456917763,-0.16759411990642548
1771873905670852900,6.638852783203125,9.874884605407715,-0.03890577703714371,-0.15801730751991272
1771873905680859000,6.64885888671875,9.865307807922363,-0.03890577703714371,-0.16759411990642548
1771873905690865000,6.658864990234375,9.860519409179688,-0.03890577703714371,-0.17238251864910126
1771873905700871000,6.668870849609375,9.865307807922363,-0.04369417950510979,-0.17717093229293823
1771873905710877200,6.678877197265625,9.855731010437012,-0.04369417950510979,-0.17717093229293823
1771873905720883200,6.68888330078125,9.870096206665039,-0.04369417950510979,-0.17238251864910126
1771873905730889200,6.69888916015625,9.865307807922363,-0.04369417950510979,-0.181959331035614
1771873905740895500,6.7088955078125,9.870096206665039,-0.048482585698366165,-0.181959331035614
1771873905750901500,6.718901611328125,9.855731010437012,-0.03890577703714371,-0.17717093229293823
1771873905760907500,6.728907470703125,9.860519409179688,-0.04369417950510979,-0.16759411990642548
1771873905770913800,6.738913818359375,9.855731010437012,-0.03890577703714371,-0.17238251864910126
1771873905780919800,6.748919921875,9.855731010437012,-0.048482585698366165,-0.17238251864910126
1771873905790925800,6.75892578125,9.870096206665039,-0.048482585698366165,-0.1867477297782898
1771873905800931800,6.768931884765625,9.870096206665039,-0.04369417950510979,-0.1867477297782898
1771873905810938000,6.778938232421875,9.860519409179688,-0.04369417950510979,-0.181959331035614
1771873905820944100,6.788944091796875,9.865307807922363,-0.03890577703714371,-0.16759411990642548
1771873905830950100,6.7989501953125,9.865307807922363,-0.048482585698366165,-0.15801730751991272
1771873905840956400,6.808956298828125,9.870096206665039,-0.04369417950510979,-0.1628057211637497
1771873905850962400,6.81896240234375,9.865307807922363,-0.04369417950510979,-0.1628057211637497
1771873905860968400,6.828968505859375,9.865307807922363,-0.04369417950510979,-0.16759411990642548
1771873905870974700,6.838974609375,9.855731010437012,-0.04369417950510979,-0.17717093229293823
1771873905880980700,6.848980712890625,9.850942611694336,-0.03411737456917763,-0.1867477297782898
1771873905890986800,6.85898681640625,10.143035888671875,-0.0293289702385664,0.033518824726343155
1771873905910999000,6.8789990234375,8.467094421386719,-0.07721300423145294,-0.9720458984375
1771873905921005000,6.889005126953125,9.884461402893066,0.03770867735147476,-0.22026655077934265
1771873905931011000,6.899010986328125,10.305841445922852,-0.10594342648983002,0.019153613597154617
